#time,accel_x,accel_y,accel_z
2610.162558,383.047749,-74.020594,9252.574275
2610.162887,-459.657299,-0.000000,9326.594869
2610.163216,0.000000,-222.061783,9474.636058
2610.163545,383.047749,-148.041188,9474.636058
2610.163875,306.438199,-74.020594,9178.553681
2610.164204,306.438199,-74.020594,8956.491898
2610.164533,383.047749,-0.000000,8882.471304
2610.164862,306.438199,-0.000000,9104.533087
2610.165192,612.876398,-296.082377,9178.553681
2610.165521,76.609550,-222.061783,8956.491898
2610.165850,229.828649,-0.000000,9104.533087
2610.166179,153.219100,-0.000000,8956.491898
2610.166509,153.219100,-222.061783,8956.491898
2610.166838,229.828649,-0.000000,8808.450710
2610.167167,0.000000,-222.061783,8956.491898
2610.167496,612.876398,-148.041188,8734.430116
2610.167825,0.000000,-222.061783,9104.533087
2610.168155,612.876398,-222.061783,8586.388927
2610.168484,229.828649,-222.061783,8808.450710
2610.168813,536.266849,-222.061783,9030.512492
2610.169142,76.609550,-222.061783,8956.491898
2610.169472,383.047749,-370.102971,9104.533087
2610.169801,383.047749,-518.144159,9252.574275
2610.170130,459.657299,-296.082377,9178.553681
2610.170459,459.657299,-370.102971,9400.615463
2610.170789,306.438199,-222.061783,9326.594869
2610.171118,383.047749,-296.082377,8956.491898
2610.171447,306.438199,-222.061783,9178.553681
2610.171776,0.000000,-666.185348,9030.512492
2610.172106,383.047749,-296.082377,9252.574275
2610.172435,229.828649,148.041188,9400.615463
2610.172764,153.219100,222.061783,9548.656652
2610.173093,306.438199,-148.041188,9252.574275
2610.173422,153.219100,-0.000000,9178.553681
2610.173752,459.657299,-74.020594,9104.533087
2610.174081,842.705048,-74.020594,9326.594869
2610.174410,612.876398,-74.020594,9252.574275
2610.174739,153.219100,-0.000000,9030.512492
2610.175069,306.438199,-0.000000,9178.553681
2610.175398,229.828649,-0.000000,9104.533087
2610.175727,383.047749,-0.000000,8956.491898
2610.176056,306.438199,-74.020594,8882.471304
2610.176386,383.047749,-222.061783,9030.512492
2610.176715,153.219100,-296.082377,9178.553681
2610.177044,306.438199,-296.082377,8956.491898
2610.177373,536.266849,-74.020594,9030.512492
2610.177703,459.657299,-74.020594,8882.471304
2610.178032,153.219100,-74.020594,8956.491898
2610.178361,306.438199,-0.000000,8956.491898
2610.178690,-153.219100,-370.102971,9104.533087
2610.179019,459.657299,-148.041188,8882.471304
2610.179349,612.876398,-518.144159,8438.347739
2610.179678,459.657299,222.061783,9252.574275
2610.180007,229.828649,-74.020594,8882.471304
2610.180336,229.828649,-222.061783,9030.512492
2610.180666,229.828649,-0.000000,9104.533087
2610.180995,536.266849,-148.041188,9474.636058
2610.181324,536.266849,-296.082377,9104.533087
2610.181653,383.047749,-518.144159,8586.388927
2610.181983,306.438199,-370.102971,9030.512492
2610.182312,383.047749,-74.020594,9178.553681
2610.182641,0.000000,-222.061783,9104.533087
2610.182970,229.828649,-222.061783,9252.574275
2610.183300,306.438199,-296.082377,9474.636058
2610.183629,-306.438199,-0.000000,9474.636058
2610.183958,612.876398,-592.164754,9326.594869
2610.184287,459.657299,-296.082377,9252.574275
2610.184616,459.657299,-222.061783,9104.533087
2610.184946,459.657299,-0.000000,9104.533087
2610.185275,229.828649,-148.041188,8956.491898
2610.185604,689.485948,-0.000000,9178.553681
2610.185933,689.485948,-148.041188,9474.636058
2610.186263,306.438199,-0.000000,9104.533087
2610.186592,459.657299,-0.000000,8882.471304
2610.186921,229.828649,-222.061783,8956.491898
2610.187250,536.266849,-74.020594,9030.512492
2610.187580,229.828649,-0.000000,9030.512492
2610.187909,229.828649,-0.000000,8956.491898
2610.188238,536.266849,-370.102971,8808.450710
2610.188567,76.609550,-296.082377,8586.388927
2610.188897,612.876398,-148.041188,9104.533087
2610.189226,229.828649,-0.000000,8734.430116
2610.189555,76.609550,-74.020594,8956.491898
2610.189884,383.047749,-0.000000,9104.533087
2610.190213,306.438199,-222.061783,8808.450710
2610.190543,536.266849,-666.185348,9104.533087
2610.190872,306.438199,-370.102971,8956.491898
2610.191201,229.828649,-370.102971,8882.471304
2610.191530,153.219100,-222.061783,9104.533087
2610.191860,229.828649,-0.000000,8882.471304
2610.192189,383.047749,-0.000000,9104.533087
2610.192518,229.828649,-370.102971,8882.471304
2610.192847,0.000000,-370.102971,9400.615463
2610.193177,459.657299,-296.082377,9030.512492
2610.193506,689.485948,-148.041188,9104.533087
2610.193835,153.219100,-0.000000,9474.636058
2610.194164,229.828649,-148.041188,9178.553681
2610.194494,306.438199,-370.102971,9030.512492
2610.194823,612.876398,-444.123565,9548.656652
2610.195152,1532.190996,-1406.391290,9770.718434
2610.195481,1532.190996,-888.247130,9474.636058
2610.195810,1685.410096,-444.123565,9548.656652
2610.196140,2374.896044,-222.061783,9252.574275
2610.196469,2604.724693,222.061783,9104.533087
2610.196798,3524.039291,296.082377,8808.450710
2610.197127,4290.134789,-296.082377,8734.430116
2610.197457,3907.087040,148.041188,8512.368333
2610.197786,2757.943793,592.164754,8438.347739
2610.198115,2681.334243,222.061783,8734.430116
2610.198444,2681.334243,-148.041188,9474.636058
2610.198774,2298.286494,-592.164754,9030.512492
2610.199103,995.924147,-666.185348,9474.636058
2610.199432,1532.190996,-1850.514855,10658.965565
2610.199761,2374.896044,-1776.494261,9400.615463
2610.200091,2374.896044,-370.102971,9400.615463
2610.200420,2987.772442,-1702.473667,9918.759623
2610.200749,3600.648841,-444.123565,8734.430116
2610.201078,4519.963438,814.226536,9178.553681
2610.201407,5745.716235,888.247130,6883.915261
2610.201737,5132.839837,1258.350101,7994.224174
2610.202066,4749.792088,962.267725,8808.450710
2610.202395,4979.620737,666.185348,6661.853478
2610.202724,3907.087040,666.185348,8734.430116
2610.203054,3370.820191,-222.061783,8808.450710
2610.203383,2145.067394,222.061783,8586.388927
2610.203712,1378.971896,-740.205942,9992.780217
2610.204041,1149.143247,-1406.391290,9474.636058
2610.204371,1608.800546,-1332.370696,10066.800811
2610.204700,229.828649,-1554.432478,9548.656652
2610.205029,1762.019645,-740.205942,9548.656652
2610.205358,1838.629195,-444.123565,10288.862594
2610.205688,3140.991542,888.247130,7994.224174
2610.206017,3524.039291,222.061783,9474.636058
2610.206346,4213.525239,1554.432478,8882.471304
2610.206675,4903.011187,592.164754,8512.368333
2610.207004,4903.011187,666.185348,8438.347739
2610.207334,4596.572988,518.144159,9030.512492
2610.207663,3830.477490,-0.000000,9030.512492
2610.207992,3294.210641,-1036.288319,9252.574275
2610.208321,2528.115143,-1036.288319,9548.656652
2610.208651,2374.896044,-1702.473667,10214.842000
2610.208980,1838.629195,-1702.473667,9770.718434
2610.209309,2451.505594,-2146.597232,10066.800811
2610.209638,2374.896044,-814.226536,9474.636058
2610.209968,3217.601092,-0.000000,9326.594869
2610.210297,3600.648841,740.205942,8290.306550
2610.210626,4366.744339,1702.473667,8586.388927
2610.210955,4596.572988,2368.659014,8068.244768
2610.211285,4366.744339,2146.597232,7550.100608
2610.211614,4213.525239,1998.556043,7772.162391
2610.211943,3677.258390,1554.432478,8290.306550
2610.212272,3370.820191,518.144159,8216.285956
2610.212602,2528.115143,-592.164754,9326.594869
2610.212931,2528.115143,-1702.473667,9844.739029
2610.213260,2221.676944,-2442.679609,10510.924376
2610.213589,2145.067394,-2886.803174,11103.089130
2610.213918,2987.772442,-2442.679609,10807.006753
2610.214248,3677.258390,-1702.473667,10214.842000
2610.214577,4826.401637,-148.041188,9474.636058
2610.214906,5439.278036,888.247130,8956.491898
2610.215235,5669.106685,2146.597232,8068.244768
2610.215565,5898.935335,3034.844362,7254.018232
2610.215894,4979.620737,3256.906145,7476.080014
2610.216223,4060.306139,2812.782580,7476.080014
2610.216552,3064.381992,1480.411884,7550.100608
2610.216882,1608.800546,-666.185348,9178.553681
2610.217211,76.609550,-2368.659014,10066.800811
2610.217540,-919.314598,-3997.112087,11177.109724
2610.217869,-995.924147,-4959.379811,11843.295072
2610.218199,-1149.143247,-3256.906145,10584.944971
2610.218528,76.609550,-2886.803174,11547.212695
2610.218857,0.000000,-1184.329507,10288.862594
2610.219186,2145.067394,-0.000000,10881.027347
2610.219515,4903.011187,888.247130,9622.677246
2610.219845,6894.859482,2146.597232,7328.038826
2610.220174,7354.516781,1850.514855,7624.121203
2610.220503,6205.373534,1110.308913,7328.038826
2610.220832,6128.763984,2220.617826,7476.080014
2610.221162,5209.449386,2368.659014,7179.997637
2610.221491,5056.230287,2146.597232,5921.647536
2610.221820,4443.353888,3256.906145,6439.791695
2610.222149,4826.401637,1924.535449,6957.935855
2610.222479,3677.258390,-370.102971,7105.977043
2610.222808,1072.533697,-4441.235652,10214.842000
2610.223137,-1149.143247,-6439.791695,12139.377449
2610.223466,-1685.410096,-3404.947333,11695.253884
2610.223796,-1149.143247,-6661.853478,13619.789333
2610.224125,-1762.019645,-2738.761985,10510.924376
2610.224454,689.485948,-296.082377,11991.336260
2610.224783,2604.724693,740.205942,11547.212695
2610.225112,4979.620737,2220.617826,9252.574275
2610.225442,7584.345430,740.205942,9918.759623
2610.225771,7124.688131,1776.494261,9252.574275
2610.226100,6971.469032,2368.659014,7476.080014
2610.226429,7431.126331,3182.885551,5033.400406
2610.226759,7890.783629,1702.473667,5995.668130
2610.227088,7737.564530,3256.906145,4293.194464
2610.227417,7967.393179,2072.576638,6883.915261
2610.227746,4979.620737,962.267725,7105.977043
2610.228076,3753.867940,1184.329507,6143.709319
2610.228405,4749.792088,-444.123565,8808.450710
2610.228734,-1225.752797,-4663.297435,12361.439231
2610.229063,-2987.772442,-4663.297435,13323.706956
2610.229393,-1532.190996,-1702.473667,13027.624579
2610.229722,-842.705048,-6957.935855,13397.727550
2610.230051,-1225.752797,1110.308913,10732.986159
2610.230380,1225.752797,518.144159,12361.439231
2610.230709,76.609550,2368.659014,10066.800811
2610.231039,2221.676944,-0.000000,14211.954086
2610.231368,6511.811733,888.247130,6735.874072
2610.231697,9499.584175,2812.782580,8216.285956
2610.232026,5439.278036,2072.576638,4071.132681
2610.232356,6665.030833,1258.350101,3997.112087
2610.232685,4060.306139,1702.473667,8068.244768
2610.233014,3600.648841,1628.453072,5181.441594
2610.233343,3447.429741,1480.411884,6365.771101
2610.233673,-1072.533697,-0.000000,9770.718434
2610.234002,-2374.896044,-4145.153275,12139.377449
2610.234331,-1149.143247,-1332.370696,9918.759623
2610.234660,-2068.457845,-3108.864956,9696.697840
2610.234990,-4136.915689,-2442.679609,11473.192101
2610.235319,-3217.601092,-1776.494261,11991.336260
2610.235648,-1762.019645,-1184.329507,12213.398043
2610.235977,-1532.190996,-370.102971,9178.553681
2610.236306,459.657299,296.082377,8364.327145
2610.236636,-766.095498,222.061783,9696.697840
2610.236965,-383.047749,1036.288319,8882.471304
2610.237294,995.924147,-592.164754,9326.594869
2610.237623,1302.362347,592.164754,6069.688724
2610.237952,1838.629195,-0.000000,7031.956449
2610.238282,1608.800546,-148.041188,6365.771101
2610.238611,919.314598,814.226536,7476.080014
2610.238940,-229.828649,-1998.556043,9770.718434
2610.239269,-459.657299,-2738.761985,10288.862594
2610.239598,-1455.581446,-1258.350101,9548.656652
2610.239928,-2145.067394,-1184.329507,10881.027347
2610.240257,-1915.238745,296.082377,9992.780217
2610.240586,-459.657299,518.144159,10214.842000
2610.240915,612.876398,296.082377,10140.821405
2610.241244,1532.190996,-74.020594,9622.677246
2610.241574,995.924147,1184.329507,9474.636058
2610.241903,2145.067394,2368.659014,8068.244768
2610.242232,1838.629195,1480.411884,6587.832884
2610.242561,995.924147,666.185348,7550.100608
2610.242890,1072.533697,-1480.411884,8512.368333
2610.243220,0.000000,-2368.659014,9548.656652
2610.243549,-1378.971896,-1998.556043,9326.594869
2610.243878,-536.266849,-1554.432478,9474.636058
2610.244207,-1532.190996,-1850.514855,9770.718434
2610.244536,-1149.143247,-148.041188,9696.697840
2610.244866,-842.705048,-518.144159,10140.821405
2610.245195,-766.095498,370.102971,10140.821405
2610.245524,459.657299,1776.494261,9622.677246
2610.245853,1302.362347,1258.350101,11103.089130
2610.246182,1915.238745,592.164754,8956.491898
2610.246512,3217.601092,-0.000000,8512.368333
2610.246841,3600.648841,592.164754,7105.977043
2610.247170,2834.553343,814.226536,7920.203579
2610.247499,2604.724693,962.267725,8956.491898
2610.247828,2374.896044,1036.288319,7846.182985
2610.248158,1762.019645,-370.102971,8956.491898
2610.248487,0.000000,-1850.514855,8882.471304
2610.248816,-766.095498,-2294.638420,9474.636058
2610.249145,-1225.752797,-2146.597232,10807.006753
2610.249474,-459.657299,-592.164754,9918.759623
2610.249804,0.000000,-740.205942,9770.718434
2610.250133,153.219100,-666.185348,9844.739029
2610.250462,1532.190996,-222.061783,10510.924376
2610.250791,1378.971896,222.061783,8438.347739
2610.251120,2911.162892,1406.391290,8438.347739
2610.251450,2528.115143,2886.803174,6957.935855
2610.251779,2834.553343,2738.761985,7328.038826
2610.252108,1915.238745,1406.391290,8364.327145
2610.252437,1149.143247,-74.020594,8290.306550
2610.252766,-536.266849,-1184.329507,8512.368333
2610.253096,-766.095498,-962.267725,8734.430116
2610.253425,-919.314598,-1480.411884,9252.574275
2610.253754,-1302.362347,-1406.391290,8956.491898
2610.254083,-1149.143247,-2072.576638,9770.718434
2610.254412,-1608.800546,-1776.494261,9696.697840
2610.254742,-689.485948,-962.267725,9548.656652
2610.255071,-1225.752797,222.061783,9770.718434
2610.255400,0.000000,444.123565,9326.594869
2610.255729,-995.924147,148.041188,9474.636058
2610.256058,-919.314598,-0.000000,9400.615463
2610.256388,-766.095498,-0.000000,9400.615463
2610.256717,-689.485948,814.226536,8882.471304
2610.257046,0.000000,592.164754,9326.594869
2610.257375,842.705048,-888.247130,8290.306550
2610.257704,153.219100,-888.247130,9252.574275
2610.258034,229.828649,-1480.411884,9326.594869
2610.258363,-1149.143247,-1258.350101,7846.182985
2610.258692,-1149.143247,222.061783,8290.306550
2610.259021,-995.924147,148.041188,8364.327145
2610.259350,-766.095498,-0.000000,9622.677246
2610.259680,-995.924147,-888.247130,10066.800811
2610.260009,-1532.190996,-1184.329507,9474.636058
2610.260338,-1225.752797,-444.123565,10214.842000
2610.260667,-383.047749,592.164754,9548.656652
2610.260996,-306.438199,370.102971,9326.594869
2610.261326,229.828649,-814.226536,9844.739029
2610.261655,0.000000,-888.247130,9770.718434
2610.261984,153.219100,-518.144159,9696.697840
2610.262313,612.876398,-518.144159,9252.574275
2610.262642,1608.800546,-0.000000,7846.182985
2610.262972,2221.676944,518.144159,7846.182985
2610.263301,2298.286494,296.082377,8216.285956
2610.263630,2298.286494,222.061783,8882.471304
2610.263959,1915.238745,1110.308913,8882.471304
2610.264288,1838.629195,592.164754,8586.388927
2610.264618,1608.800546,148.041188,8882.471304
2610.264947,919.314598,-0.000000,9252.574275
2610.265276,536.266849,-1258.350101,10140.821405
2610.265605,766.095498,-740.205942,9548.656652
2610.265934,766.095498,-370.102971,9104.533087
2610.266264,1685.410096,666.185348,8660.409521
2610.266593,1149.143247,444.123565,8586.388927
2610.266922,1302.362347,-74.020594,8734.430116
2610.267251,1225.752797,-222.061783,9104.533087
2610.267580,1149.143247,222.061783,9178.553681
2610.267910,1149.143247,740.205942,8438.347739
2610.268239,1455.581446,370.102971,8660.409521
2610.268568,1225.752797,-222.061783,9030.512492
2610.268897,1378.971896,-1184.329507,9474.636058
2610.269226,689.485948,-1110.308913,9252.574275
2610.269556,689.485948,-222.061783,9474.636058
2610.269885,842.705048,592.164754,9474.636058
2610.270214,536.266849,296.082377,9252.574275
2610.270543,229.828649,-0.000000,9104.533087
2610.270872,0.000000,-740.205942,9400.615463
2610.271202,-612.876398,-592.164754,9622.677246
2610.271531,-306.438199,296.082377,9622.677246
2610.271860,-612.876398,-296.082377,9252.574275
2610.272189,-383.047749,-370.102971,9326.594869
2610.272518,-383.047749,-1332.370696,9696.697840
2610.272848,-612.876398,-666.185348,9326.594869
2610.273177,-766.095498,-296.082377,9326.594869
2610.273506,-306.438199,518.144159,8808.450710
2610.273835,-459.657299,592.164754,9104.533087
2610.274164,-306.438199,-296.082377,9326.594869
2610.274494,-1149.143247,-1036.288319,9474.636058
2610.274823,-1225.752797,-370.102971,9400.615463
2610.275152,-766.095498,-74.020594,9326.594869
2610.275481,-612.876398,592.164754,8956.491898
2610.275810,-459.657299,-0.000000,9326.594869
2610.276139,-153.219100,-1258.350101,9474.636058
2610.276469,-459.657299,-1110.308913,9474.636058
2610.276798,-842.705048,-740.205942,9622.677246
2610.277127,-612.876398,-592.164754,8882.471304
2610.277456,-536.266849,-148.041188,8808.450710
2610.277785,-153.219100,-0.000000,8808.450710
2610.278115,-306.438199,-592.164754,8956.491898
2610.278444,-229.828649,-740.205942,8956.491898
2610.278773,306.438199,-0.000000,8734.430116
2610.279102,842.705048,962.267725,8364.327145
2610.279431,842.705048,296.082377,8142.265362
2610.279761,1149.143247,-148.041188,8734.430116
2610.280090,1378.971896,-592.164754,9252.574275
2610.280419,1302.362347,-296.082377,8882.471304
2610.280748,1225.752797,370.102971,8734.430116
2610.281077,1225.752797,-0.000000,9030.512492
2610.281407,1455.581446,222.061783,8808.450710
2610.281736,1149.143247,-370.102971,9178.553681
2610.282065,612.876398,-1184.329507,9474.636058
2610.282394,229.828649,-518.144159,9474.636058
2610.282723,766.095498,-0.000000,9474.636058
2610.283053,536.266849,-444.123565,9474.636058
2610.283382,536.266849,-1702.473667,9770.718434
2610.283711,1072.533697,-888.247130,9474.636058
2610.284040,1455.581446,-1036.288319,9030.512492
2610.284369,1532.190996,-0.000000,8808.450710
2610.284699,2145.067394,518.144159,8882.471304
2610.285028,2298.286494,962.267725,8512.368333
2610.285357,1838.629195,444.123565,8882.471304
2610.285686,1915.238745,222.061783,9474.636058
2610.286015,1225.752797,296.082377,9030.512492
2610.286345,919.314598,296.082377,9400.615463
2610.286674,1149.143247,-0.000000,8586.388927
2610.287003,612.876398,-222.061783,9474.636058
2610.287332,306.438199,-1702.473667,9474.636058
2610.287661,1302.362347,-1406.391290,9104.533087
2610.287991,842.705048,-666.185348,9326.594869
2610.288320,0.000000,-74.020594,8438.347739
2610.288649,459.657299,296.082377,8142.265362
2610.288978,0.000000,-222.061783,8734.430116
2610.289307,-153.219100,-222.061783,8808.450710
2610.289637,-612.876398,-518.144159,9400.615463
2610.289966,0.000000,-370.102971,8808.450710
2610.290295,229.828649,518.144159,8808.450710
2610.290624,-306.438199,-74.020594,9104.533087
2610.290953,-383.047749,-592.164754,9622.677246
2610.291283,0.000000,-962.267725,9400.615463
2610.291612,76.609550,-0.000000,9622.677246
2610.291941,153.219100,-296.082377,9104.533087
2610.292270,536.266849,814.226536,8290.306550
2610.292599,306.438199,592.164754,8956.491898
2610.292929,0.000000,-148.041188,8660.409521
2610.293258,-536.266849,-370.102971,8808.450710
2610.293587,-766.095498,-370.102971,8956.491898
2610.293916,-689.485948,444.123565,8660.409521
2610.294245,-1072.533697,-814.226536,9178.553681
2610.294575,-383.047749,-1628.453072,9326.594869
2610.294904,-995.924147,-2146.597232,9696.697840
2610.295233,-1378.971896,-1110.308913,9992.780217
2610.295562,-1225.752797,-518.144159,9548.656652
2610.295891,-1072.533697,444.123565,9326.594869
2610.296221,-842.705048,666.185348,9400.615463
2610.296550,-536.266849,222.061783,9178.553681
2610.296879,0.000000,-518.144159,9844.739029
2610.297208,-459.657299,518.144159,10140.821405
2610.297537,459.657299,666.185348,9104.533087
2610.297867,766.095498,814.226536,8364.327145
2610.298196,1072.533697,-0.000000,8216.285956
2610.298525,1762.019645,-222.061783,9104.533087
2610.298854,1685.410096,-888.247130,8068.244768
2610.299183,1838.629195,-444.123565,8882.471304
2610.299513,995.924147,-74.020594,8290.306550
2610.299842,1302.362347,444.123565,8142.265362
2610.300171,1302.362347,-0.000000,9252.574275
2610.300500,919.314598,-296.082377,9252.574275
2610.300829,459.657299,-222.061783,9918.759623
2610.301159,919.314598,148.041188,9178.553681
2610.301488,1149.143247,592.164754,9252.574275
2610.301817,995.924147,-222.061783,9474.636058
2610.302146,1608.800546,-592.164754,9622.677246
2610.302475,1532.190996,-370.102971,8956.491898
2610.302805,1838.629195,370.102971,9104.533087
2610.303134,1915.238745,1036.288319,8512.368333
2610.303463,1762.019645,1110.308913,8290.306550
2610.303792,1302.362347,666.185348,9326.594869
2610.304121,1225.752797,-222.061783,8882.471304
2610.304451,383.047749,-444.123565,9400.615463
2610.304780,229.828649,296.082377,8808.450710
2610.305109,0.000000,-0.000000,9252.574275
2610.305438,0.000000,-1110.308913,10436.903782
2610.305767,919.314598,-518.144159,9844.739029
2610.306097,1302.362347,-1406.391290,9400.615463
2610.306426,1225.752797,-666.185348,8512.368333
2610.306755,1762.019645,148.041188,9548.656652
2610.307084,1225.752797,666.185348,9030.512492
2610.307413,1302.362347,666.185348,7772.162391
2610.307743,1149.143247,-0.000000,8956.491898
2610.308072,306.438199,-148.041188,9030.512492
2610.308401,0.000000,-148.041188,9178.553681
2610.308730,0.000000,-222.061783,9030.512492
2610.309059,-919.314598,-370.102971,9104.533087
2610.309389,-766.095498,-1036.288319,9696.697840
2610.309718,-1225.752797,-1776.494261,9696.697840
2610.310047,-1685.410096,-962.267725,9252.574275
2610.310376,-1685.410096,-666.185348,9178.553681
2610.310705,-1378.971896,-148.041188,8660.409521
2610.311035,-1455.581446,444.123565,8364.327145
2610.311364,-995.924147,-370.102971,8438.347739
2610.311693,-995.924147,-296.082377,8882.471304
2610.312022,-1378.971896,-296.082377,8808.450710
2610.312351,-995.924147,-74.020594,8364.327145
2610.312681,-766.095498,-74.020594,8290.306550
2610.313010,-919.314598,-740.205942,9178.553681
2610.313339,-612.876398,-1406.391290,9326.594869
2610.313668,-919.314598,-1184.329507,9104.533087
2610.313997,-153.219100,-518.144159,8660.409521
2610.314327,229.828649,-0.000000,8216.285956
2610.314656,306.438199,222.061783,8216.285956
2610.314985,536.266849,-222.061783,8956.491898
2610.315314,536.266849,-666.185348,9400.615463
2610.315643,0.000000,-370.102971,9178.553681
2610.315973,0.000000,666.185348,8882.471304
2610.316302,383.047749,518.144159,8956.491898
2610.316631,229.828649,-74.020594,9326.594869
2610.316960,229.828649,-1036.288319,9770.718434
2610.317289,536.266849,-370.102971,9326.594869
2610.317619,229.828649,-888.247130,9770.718434
2610.317948,919.314598,-666.185348,9696.697840
2610.318277,229.828649,592.164754,9696.697840
2610.318606,153.219100,-518.144159,9474.636058
2610.318935,459.657299,-148.041188,9474.636058
2610.319264,995.924147,370.102971,9548.656652
2610.319594,1455.581446,-0.000000,9400.615463
2610.319923,1608.800546,1258.350101,9178.553681
2610.320252,2451.505594,-0.000000,9474.636058
2610.320581,2528.115143,-0.000000,9252.574275
2610.320910,3064.381992,-74.020594,9252.574275
2610.321240,2604.724693,-0.000000,9400.615463
2610.321569,2374.896044,296.082377,8660.409521
2610.321898,2374.896044,814.226536,8660.409521
2610.322227,2298.286494,222.061783,8512.368333
2610.322556,1838.629195,-0.000000,8882.471304
2610.322886,919.314598,-518.144159,9770.718434
2610.323215,995.924147,-518.144159,9252.574275
2610.323544,153.219100,444.123565,8882.471304
2610.323873,229.828649,-370.102971,9400.615463
2610.324202,383.047749,-666.185348,9548.656652
2610.324532,0.000000,-1110.308913,9474.636058
2610.324861,0.000000,-1406.391290,9770.718434
2610.325190,0.000000,-0.000000,9326.594869
2610.325519,612.876398,148.041188,8882.471304
2610.325848,0.000000,370.102971,8290.306550
2610.326178,383.047749,-0.000000,9178.553681
2610.326507,-229.828649,-0.000000,9178.553681
2610.326836,-383.047749,-0.000000,9178.553681
2610.327165,-766.095498,-0.000000,9178.553681
2610.327494,-383.047749,296.082377,8808.450710
2610.327824,-459.657299,-962.267725,9178.553681
2610.328153,0.000000,-1110.308913,9178.553681
2610.328482,-536.266849,-1036.288319,9400.615463
2610.328811,-536.266849,-518.144159,8512.368333
2610.329140,-306.438199,740.205942,7846.182985
2610.329470,-306.438199,518.144159,8142.265362
2610.329799,153.219100,-0.000000,8290.306550
2610.330128,-689.485948,-740.205942,8808.450710
2610.330457,-842.705048,-370.102971,8956.491898
2610.330786,-919.314598,370.102971,9104.533087
2610.331116,-919.314598,592.164754,8808.450710
2610.331445,-1225.752797,-222.061783,9178.553681
2610.331774,-689.485948,-1406.391290,9696.697840
2610.332103,-766.095498,-1554.432478,9178.553681
2610.332432,-1072.533697,-1184.329507,9104.533087
2610.332762,-995.924147,222.061783,9326.594869
2610.333091,-612.876398,444.123565,8734.430116
2610.333420,-536.266849,-0.000000,8734.430116
2610.333749,-229.828649,-518.144159,9252.574275
2610.334078,-306.438199,-296.082377,8882.471304
2610.334408,76.609550,148.041188,9178.553681
2610.334737,536.266849,-444.123565,8512.368333
2610.335066,536.266849,-370.102971,8512.368333
2610.335395,1072.533697,-666.185348,9400.615463
2610.335724,1302.362347,-518.144159,9178.553681
2610.336054,1225.752797,-0.000000,8808.450710
2610.336383,1915.238745,296.082377,9104.533087
2610.336712,2451.505594,222.061783,8290.306550
2610.337041,2068.457845,666.185348,9030.512492
2610.337370,1915.238745,-518.144159,9326.594869
2610.337700,1532.190996,-444.123565,8808.450710
2610.338029,1149.143247,296.082377,9548.656652
2610.338358,1225.752797,370.102971,9030.512492
2610.338688,1532.190996,-0.000000,9030.512492
2610.339017,1072.533697,-1110.308913,9770.718434
2610.339346,919.314598,-740.205942,9548.656652
2610.339675,766.095498,-1184.329507,9696.697840
2610.340004,536.266849,-592.164754,9400.615463
2610.340334,612.876398,-0.000000,8882.471304
2610.340663,612.876398,-0.000000,9474.636058
2610.340992,536.266849,-0.000000,8956.491898
2610.341321,1302.362347,-74.020594,8882.471304
2610.341650,1072.533697,666.185348,10955.047942
2610.341979,1302.362347,518.144159,8438.347739
2610.342308,1532.190996,-518.144159,8512.368333
2610.342637,1762.019645,592.164754,8808.450710
2610.342966,1915.238745,-592.164754,9844.739029
2610.343295,1685.410096,-370.102971,8586.388927
2610.343624,1532.190996,-148.041188,8586.388927
2610.343953,1072.533697,148.041188,8216.285956
2610.344282,1072.533697,592.164754,8290.306550
2610.344611,536.266849,-518.144159,8808.450710
2610.344940,76.609550,-296.082377,8956.491898
2610.345269,-306.438199,-74.020594,9548.656652
2610.345598,-612.876398,-0.000000,9400.615463
2610.345927,-153.219100,222.061783,9030.512492
2610.346256,0.000000,-518.144159,8142.265362
2610.346585,153.219100,-1480.411884,9548.656652
2610.346915,-306.438199,-888.247130,9548.656652
2610.347244,-689.485948,-888.247130,9178.553681
2610.347573,-306.438199,-0.000000,8882.471304
2610.347902,-383.047749,518.144159,8364.327145
2610.348231,-459.657299,-74.020594,8956.491898
2610.348560,-1378.971896,-444.123565,8956.491898
2610.348889,-1378.971896,-592.164754,9400.615463
2610.349218,-1302.362347,-370.102971,9030.512492
2610.349547,-919.314598,296.082377,8956.491898
2610.349876,-1072.533697,-814.226536,9030.512492
2610.350205,-1149.143247,-1184.329507,9474.636058
2610.350534,-1302.362347,-1406.391290,9696.697840
2610.350863,-995.924147,-1332.370696,9770.718434
2610.351192,-766.095498,-444.123565,9474.636058
2610.351521,-306.438199,444.123565,9030.512492
2610.351850,-153.219100,962.267725,8734.430116
2610.352179,919.314598,814.226536,8882.471304
2610.352508,76.609550,296.082377,9252.574275
2610.352837,229.828649,814.226536,10214.842000
2610.353166,1149.143247,1702.473667,9178.553681
2610.353495,612.876398,-0.000000,7698.141797
2610.353825,919.314598,-222.061783,8586.388927
2610.354154,919.314598,-592.164754,9400.615463
2610.354483,153.219100,-1036.288319,9326.594869
2610.354812,383.047749,-74.020594,9178.553681
2610.355141,383.047749,-74.020594,8956.491898
2610.355470,612.876398,148.041188,8956.491898
2610.355799,383.047749,-518.144159,9474.636058
2610.356128,76.609550,-740.205942,9474.636058
2610.356457,383.047749,-666.185348,9400.615463
2610.356786,842.705048,592.164754,9400.615463
2610.357115,766.095498,222.061783,8364.327145
2610.357444,1302.362347,-0.000000,9252.574275
2610.357773,1991.848295,-666.185348,9548.656652
2610.358102,2068.457845,-814.226536,9104.533087
2610.358431,1685.410096,-296.082377,9104.533087
2610.358760,2451.505594,-0.000000,8586.388927
2610.359089,2681.334243,740.205942,7994.224174
2610.359418,2604.724693,222.061783,8956.491898
2610.359747,2068.457845,-222.061783,8512.368333
2610.360076,1532.190996,-296.082377,9104.533087
2610.360406,1685.410096,814.226536,8216.285956
2610.360735,1378.971896,-0.000000,8438.347739
2610.361064,766.095498,-444.123565,8586.388927
2610.361393,919.314598,-1110.308913,9622.677246
2610.361722,153.219100,-1850.514855,9400.615463
2610.362051,0.000000,-1036.288319,9770.718434
2610.362380,-459.657299,-518.144159,9474.636058
2610.362709,0.000000,-74.020594,9474.636058
2610.363038,-306.438199,666.185348,9622.677246
2610.363367,-612.876398,-0.000000,9696.697840
2610.363696,-459.657299,518.144159,9400.615463
2610.364025,-306.438199,740.205942,9030.512492
2610.364354,-306.438199,1184.329507,8290.306550
2610.364683,153.219100,-0.000000,9178.553681
2610.365012,153.219100,-666.185348,9104.533087
2610.365341,-689.485948,-592.164754,9474.636058
2610.365670,-536.266849,-1554.432478,9252.574275
2610.365999,-612.876398,-296.082377,8068.244768
2610.366328,-229.828649,592.164754,8512.368333
2610.366657,-383.047749,-0.000000,8882.471304
2610.366987,0.000000,-370.102971,9178.553681
2610.367316,-383.047749,-148.041188,9326.594869
2610.367645,-842.705048,370.102971,9104.533087
2610.367974,-995.924147,444.123565,8660.409521
2610.368303,-612.876398,-74.020594,8808.450710
2610.368632,-612.876398,-370.102971,9252.574275
2610.368961,-1072.533697,-2072.576638,9622.677246
2610.369290,-1225.752797,-1480.411884,9400.615463
2610.369619,-995.924147,-296.082377,9474.636058
2610.369948,-1302.362347,-0.000000,8734.430116
2610.370277,-995.924147,148.041188,8956.491898
2610.370606,-842.705048,-444.123565,8956.491898
2610.370935,-842.705048,-740.205942,9252.574275
2610.371264,-459.657299,-74.020594,9548.656652
2610.371593,-383.047749,-74.020594,8660.409521
2610.371922,-612.876398,-0.000000,9474.636058
2610.372251,0.000000,-666.185348,9474.636058
2610.372580,459.657299,-1184.329507,9622.677246
2610.372909,995.924147,-666.185348,9252.574275
2610.373238,1149.143247,-0.000000,9178.553681
2610.373567,1838.629195,740.205942,8882.471304
2610.373897,2068.457845,1036.288319,8216.285956
2610.374226,2451.505594,444.123565,9030.512492
2610.374555,2298.286494,518.144159,9030.512492
2610.374884,1915.238745,888.247130,9030.512492
2610.375213,1838.629195,1036.288319,8956.491898
2610.375542,1838.629195,1110.308913,8660.409521
2610.375871,995.924147,-148.041188,9622.677246
2610.376200,1378.971896,-1184.329507,9696.697840
2610.376529,612.876398,-1702.473667,9474.636058
2610.376858,689.485948,-1406.391290,9770.718434
2610.377187,459.657299,-74.020594,8956.491898
2610.377516,536.266849,222.061783,8882.471304
2610.377845,842.705048,148.041188,9104.533087
2610.378174,1149.143247,-0.000000,8882.471304
2610.378503,1149.143247,-0.000000,9178.553681
2610.378832,2068.457845,222.061783,8956.491898
2610.379161,1149.143247,1110.308913,8956.491898
2610.379490,1149.143247,222.061783,8882.471304
2610.379819,1762.019645,-814.226536,9178.553681
2610.380148,1685.410096,-370.102971,8808.450710
2610.380478,1532.190996,-740.205942,9178.553681
2610.380807,995.924147,-148.041188,8808.450710
2610.381136,1378.971896,-148.041188,8512.368333
2610.381465,842.705048,444.123565,8290.306550
2610.381794,306.438199,-0.000000,9178.553681
2610.382123,0.000000,-592.164754,9326.594869
2610.382452,0.000000,-592.164754,9178.553681
2610.382781,-229.828649,444.123565,8734.430116
2610.383110,0.000000,-222.061783,8586.388927
2610.383439,-229.828649,-888.247130,8882.471304
2610.383768,0.000000,-1998.556043,9474.636058
2610.384097,-612.876398,-1184.329507,9178.553681
2610.384426,-612.876398,-296.082377,8956.491898
2610.384755,-689.485948,444.123565,7846.182985
2610.385084,-383.047749,444.123565,9178.553681
2610.385413,-995.924147,-0.000000,9622.677246
2610.385742,-1608.800546,-1406.391290,9474.636058
2610.386071,-1608.800546,-518.144159,9104.533087
2610.386400,-1072.533697,-0.000000,9326.594869
2610.386729,-995.924147,-0.000000,8364.327145
2610.387058,-689.485948,-518.144159,9326.594869
2610.387388,-766.095498,-1776.494261,9400.615463
2610.387717,-536.266849,-1184.329507,8882.471304
2610.388046,-995.924147,-814.226536,9474.636058
2610.388375,-995.924147,-0.000000,8734.430116
2610.388704,0.000000,370.102971,8734.430116
2610.389033,306.438199,-0.000000,9104.533087
2610.389362,306.438199,-370.102971,8956.491898
2610.389691,459.657299,222.061783,9252.574275
2610.390020,1378.971896,666.185348,8956.491898
2610.390349,1225.752797,1406.391290,8068.244768
2610.390678,1608.800546,888.247130,8586.388927
2610.391007,1149.143247,-444.123565,8882.471304
2610.391336,919.314598,-518.144159,9400.615463
2610.391665,306.438199,-666.185348,9474.636058
2610.391994,153.219100,-370.102971,8808.450710
2610.392323,459.657299,-444.123565,9400.615463
2610.392652,383.047749,-814.226536,9844.739029
2610.392981,-612.876398,-1332.370696,9770.718434
2610.393310,-229.828649,-1110.308913,9918.759623
2610.393639,306.438199,-370.102971,9474.636058
2610.393969,842.705048,740.205942,9104.533087
2610.394298,1532.190996,-148.041188,9474.636058
2610.394627,1532.190996,-444.123565,8956.491898
2610.394956,2987.772442,-518.144159,9400.615463
2610.395285,2451.505594,-0.000000,9326.594869
2610.395614,2681.334243,1110.308913,8808.450710
2610.395943,2221.676944,1036.288319,8438.347739
2610.396272,2068.457845,1184.329507,8734.430116
2610.396601,2298.286494,222.061783,9474.636058
2610.396930,1149.143247,-74.020594,9548.656652
2610.397259,766.095498,222.061783,10066.800811
2610.397588,536.266849,222.061783,9770.718434
2610.397917,459.657299,-222.061783,9474.636058
2610.398246,689.485948,-518.144159,9474.636058
2610.398575,995.924147,-1184.329507,9252.574275
2610.398904,766.095498,-962.267725,9474.636058
2610.399233,1149.143247,-222.061783,9104.533087
2610.399562,1915.238745,592.164754,8290.306550
2610.399891,1455.581446,814.226536,8512.368333
2610.400220,842.705048,1184.329507,8142.265362
2610.400549,459.657299,-0.000000,9030.512492
2610.400879,0.000000,-0.000000,9104.533087
2610.401208,229.828649,148.041188,8808.450710
2610.401537,0.000000,-148.041188,9326.594869
2610.401866,-459.657299,-1406.391290,9474.636058
2610.402195,-842.705048,-2294.638420,9696.697840
2610.402524,-383.047749,-1850.514855,9326.594869
2610.402853,-689.485948,-1332.370696,9178.553681
2610.403182,-612.876398,148.041188,8586.388927
2610.403511,-306.438199,-0.000000,8734.430116
2610.403840,-306.438199,222.061783,8882.471304
2610.404169,-306.438199,-370.102971,8808.450710
2610.404498,-383.047749,-0.000000,8808.450710
2610.404827,-536.266849,444.123565,8364.327145
2610.405156,-459.657299,444.123565,8660.409521
2610.405485,-459.657299,-148.041188,8808.450710
2610.405814,-383.047749,-1480.411884,9474.636058
2610.406143,-612.876398,-1406.391290,9548.656652
2610.406472,-1149.143247,-962.267725,9474.636058
2610.406801,-1072.533697,-148.041188,8882.471304
2610.407130,-842.705048,-222.061783,8512.368333
2610.407460,-1225.752797,-0.000000,9474.636058
2610.407789,-842.705048,-666.185348,9474.636058
2610.408118,-842.705048,-814.226536,9400.615463
2610.408447,-612.876398,-74.020594,9326.594869
2610.408776,-612.876398,-0.000000,8956.491898
2610.409105,76.609550,-370.102971,8882.471304
2610.409434,76.609550,-740.205942,9474.636058
2610.409763,612.876398,-666.185348,8808.450710
2610.410092,919.314598,-444.123565,9104.533087
2610.410421,1532.190996,740.205942,8438.347739
2610.410750,1225.752797,1036.288319,7994.224174
2610.411079,1685.410096,814.226536,8586.388927
2610.411408,1302.362347,-518.144159,9030.512492
2610.411737,1455.581446,-222.061783,9326.594869
2610.412066,995.924147,-0.000000,9548.656652
2610.412395,766.095498,592.164754,8882.471304
2610.412724,1149.143247,370.102971,9030.512492
2610.413053,1608.800546,-444.123565,9474.636058
2610.413382,1532.190996,-1332.370696,9474.636058
2610.413711,1608.800546,-592.164754,9696.697840
2610.414041,1302.362347,-592.164754,9474.636058
2610.414370,1608.800546,296.082377,8512.368333
2610.414699,1455.581446,444.123565,8734.430116
2610.415028,1225.752797,-0.000000,9326.594869
2610.415357,1302.362347,-592.164754,9474.636058
2610.415686,919.314598,-222.061783,9548.656652
2610.416015,1149.143247,-0.000000,9474.636058
2610.416344,919.314598,-0.000000,8882.471304
2610.416673,995.924147,-666.185348,9030.512492
2610.417002,1302.362347,-1110.308913,9474.636058
2610.417331,1149.143247,-888.247130,9104.533087
2610.417660,1149.143247,-222.061783,8882.471304
2610.417989,1149.143247,888.247130,8734.430116
2610.418318,1302.362347,1036.288319,7624.121203
2610.418647,842.705048,-0.000000,8586.388927
2610.418976,536.266849,-888.247130,10732.986159
2610.419305,0.000000,-0.000000,9030.512492
2610.419634,-306.438199,-296.082377,8734.430116
2610.419963,-306.438199,444.123565,8290.306550
2610.420292,76.609550,-222.061783,9844.739029
2610.420621,229.828649,-1554.432478,10510.924376
2610.420951,-383.047749,-1776.494261,9104.533087
2610.421280,0.000000,-1110.308913,9252.574275
2610.421609,-612.876398,666.185348,8290.306550
2610.421938,0.000000,888.247130,8290.306550
2610.422267,-536.266849,370.102971,8142.265362
2610.422596,-1149.143247,-148.041188,8586.388927
2610.422925,-766.095498,-370.102971,9104.533087
2610.423254,-1378.971896,-444.123565,9178.553681
2610.423583,-766.095498,-0.000000,8216.285956
2610.423912,-1455.581446,-370.102971,8808.450710
2610.424241,-1225.752797,-1406.391290,9474.636058
2610.424570,-1302.362347,-1480.411884,9770.718434
2610.424899,-1149.143247,-1258.350101,9474.636058
2610.425228,-919.314598,-0.000000,8808.450710
2610.425557,-995.924147,370.102971,8438.347739
2610.425886,76.609550,370.102971,8364.327145
2610.426215,153.219100,-518.144159,9474.636058
2610.426544,229.828649,-592.164754,9252.574275
2610.426873,229.828649,-74.020594,9030.512492
2610.427202,766.095498,370.102971,8438.347739
2610.427532,842.705048,-74.020594,8512.368333
2610.427861,842.705048,-1184.329507,9474.636058
2610.428190,459.657299,-1258.350101,9178.553681
2610.428519,306.438199,-592.164754,9252.574275
2610.428848,383.047749,222.061783,9030.512492
2610.429177,689.485948,962.267725,8364.327145
2610.429506,383.047749,740.205942,8808.450710
2610.429835,383.047749,-296.082377,9622.677246
2610.430164,-229.828649,-444.123565,9696.697840
2610.430493,536.266849,-518.144159,9696.697840
2610.430822,-153.219100,296.082377,8956.491898
2610.431151,842.705048,296.082377,9104.533087
2610.431480,383.047749,-814.226536,9178.553681
2610.431809,1378.971896,-666.185348,10066.800811
2610.432138,2068.457845,-1406.391290,9252.574275
2610.432467,2451.505594,-0.000000,8586.388927
2610.432796,2145.067394,962.267725,7846.182985
2610.433125,2451.505594,1258.350101,8142.265362
2610.433454,2604.724693,814.226536,8956.491898
2610.433783,2451.505594,222.061783,9400.615463
2610.434112,1685.410096,296.082377,8734.430116
2610.434442,1072.533697,814.226536,8660.409521
2610.434771,1455.581446,148.041188,8734.430116
2610.435100,689.485948,-0.000000,9178.553681
2610.435429,1225.752797,-1406.391290,9918.759623
2610.435758,459.657299,-1406.391290,9548.656652
2610.436087,0.000000,-1036.288319,9474.636058
2610.436416,76.609550,-0.000000,8734.430116
2610.436745,76.609550,296.082377,8734.430116
2610.437074,-995.924147,-74.020594,9104.533087
2610.437403,153.219100,-370.102971,9326.594869
2610.437732,383.047749,-518.144159,9030.512492
2610.438061,153.219100,-0.000000,8882.471304
2610.438390,229.828649,518.144159,8808.450710
2610.438719,229.828649,-74.020594,8512.368333
2610.439048,229.828649,-1406.391290,9474.636058
2610.439377,383.047749,-1036.288319,9252.574275
2610.439706,-383.047749,-222.061783,9326.594869
2610.440035,-153.219100,-0.000000,8734.430116
2610.440364,-612.876398,518.144159,8808.450710
2610.440693,-612.876398,296.082377,9030.512492
2610.441022,-842.705048,-370.102971,9326.594869
2610.441351,-995.924147,-1036.288319,9474.636058
2610.441681,-1455.581446,-740.205942,9400.615463
2610.442010,-1532.190996,-0.000000,9178.553681
2610.442339,-995.924147,-592.164754,8586.388927
2610.442668,-919.314598,-962.267725,9252.574275
2610.442997,-919.314598,-1776.494261,9622.677246
2610.443326,-1149.143247,-814.226536,9104.533087
2610.443655,-919.314598,-444.123565,9326.594869
2610.443984,-766.095498,444.123565,8660.409521
2610.444313,-536.266849,814.226536,8882.471304
2610.444642,-536.266849,-0.000000,9104.533087
2610.444971,0.000000,-592.164754,9400.615463
2610.445300,0.000000,-148.041188,9400.615463
2610.445629,0.000000,592.164754,8660.409521
2610.445958,0.000000,518.144159,8882.471304
2610.446287,536.266849,-370.102971,9104.533087
2610.446616,842.705048,-814.226536,9622.677246
2610.446945,1608.800546,-962.267725,9474.636058
2610.447274,1149.143247,-370.102971,8808.450710
2610.447603,766.095498,370.102971,8512.368333
2610.447932,1302.362347,592.164754,8512.368333
2610.448261,1378.971896,-222.061783,9178.553681
2610.448590,1608.800546,-666.185348,9918.759623
2610.448919,536.266849,-518.144159,9474.636058
2610.449248,919.314598,-0.000000,9252.574275
2610.449577,1225.752797,962.267725,8734.430116
2610.449906,1149.143247,222.061783,8882.471304
2610.450235,919.314598,-962.267725,10140.821405
2610.450564,1455.581446,-1110.308913,9474.636058
2610.450893,1838.629195,-666.185348,9252.574275
2610.451222,689.485948,148.041188,9252.574275
2610.451551,1608.800546,888.247130,8808.450710
2610.451880,1149.143247,592.164754,8956.491898
2610.452209,842.705048,-222.061783,9696.697840
2610.452538,1225.752797,-74.020594,9474.636058
2610.452867,1302.362347,518.144159,9474.636058
2610.453196,1072.533697,1184.329507,8956.491898
2610.453525,1378.971896,-296.082377,9252.574275
2610.453855,1072.533697,-222.061783,9104.533087
2610.454184,1455.581446,-888.247130,9178.553681
2610.454513,1225.752797,-740.205942,9252.574275
2610.454842,689.485948,222.061783,8734.430116
2610.455171,1072.533697,-0.000000,8438.347739
2610.455500,306.438199,296.082377,8586.388927
2610.455829,459.657299,592.164754,9326.594869
2610.456158,0.000000,-592.164754,9104.533087
2610.456487,-306.438199,-0.000000,9252.574275
2610.456816,76.609550,740.205942,8216.285956
2610.457145,0.000000,222.061783,8290.306550
2610.457474,383.047749,-962.267725,9178.553681
2610.457803,229.828649,-1258.350101,9474.636058
2610.458132,0.000000,-444.123565,8882.471304
2610.458461,-536.266849,-370.102971,9104.533087
2610.458790,-459.657299,444.123565,8364.327145
2610.459119,-536.266849,296.082377,8438.347739
2610.459448,-612.876398,-0.000000,8882.471304
2610.459777,-1149.143247,-1110.308913,9326.594869
2610.460106,-1378.971896,-666.185348,9844.739029
2610.460435,-919.314598,-444.123565,9326.594869
2610.460764,-1225.752797,296.082377,8956.491898
2610.461093,-1149.143247,-1332.370696,9548.656652
2610.461422,-842.705048,-1554.432478,10066.800811
2610.461751,-995.924147,-1702.473667,9474.636058
2610.462080,-612.876398,-1332.370696,9844.739029
2610.462409,0.000000,74.020594,8734.430116
2610.462738,842.705048,370.102971,8808.450710
2610.463067,383.047749,-74.020594,9178.553681
2610.463396,383.047749,-222.061783,9178.553681
2610.463725,612.876398,-0.000000,8956.491898
2610.464054,536.266849,814.226536,8734.430116
2610.464383,689.485948,666.185348,8290.306550
2610.464712,612.876398,-74.020594,8956.491898
2610.465041,1072.533697,-888.247130,9400.615463
2610.465370,842.705048,-1110.308913,9104.533087
2610.465699,153.219100,-148.041188,9326.594869
2610.466029,229.828649,444.123565,8586.388927
2610.466358,306.438199,444.123565,8438.347739
2610.466687,0.000000,-0.000000,9178.553681
2610.467016,612.876398,-962.267725,9696.697840
2610.467345,306.438199,-666.185348,9326.594869
2610.467674,842.705048,-0.000000,9178.553681
2610.468003,1072.533697,592.164754,8660.409521
2610.468332,995.924147,1036.288319,8586.388927
2610.468661,2145.067394,-592.164754,8660.409521
2610.468990,2757.943793,-518.144159,8142.265362
2610.469319,2221.676944,-222.061783,8734.430116
2610.469648,2528.115143,-518.144159,9178.553681
2610.469977,1532.190996,592.164754,8882.471304
2610.470306,1455.581446,296.082377,8290.306550
2610.470635,1455.581446,-0.000000,9252.574275
2610.470964,612.876398,-1184.329507,9696.697840
2610.471293,153.219100,222.061783,10140.821405
2610.471622,1149.143247,296.082377,9326.594869
2610.471951,76.609550,-814.226536,9400.615463
2610.472280,536.266849,-1628.453072,9548.656652
2610.472609,919.314598,-1332.370696,9770.718434
2610.472938,536.266849,-1258.350101,9178.553681
2610.473267,1149.143247,-74.020594,8956.491898
2610.473596,1455.581446,666.185348,8142.265362
2610.473925,1762.019645,444.123565,8068.244768
2610.474254,1608.800546,740.205942,9548.656652
2610.474583,995.924147,-370.102971,8956.491898
2610.474912,153.219100,296.082377,9104.533087
2610.475241,0.000000,592.164754,8882.471304
2610.475570,306.438199,370.102971,8734.430116
2610.475899,-612.876398,-222.061783,9400.615463
2610.476228,0.000000,-1480.411884,9400.615463
2610.476557,0.000000,-1554.432478,9400.615463
2610.476886,-995.924147,-592.164754,9474.636058
2610.477215,-612.876398,222.061783,8364.327145
2610.477544,-766.095498,444.123565,8660.409521
2610.477873,-306.438199,-592.164754,9104.533087
2610.478203,153.219100,-0.000000,9400.615463
2610.478532,-383.047749,-0.000000,9252.574275
2610.478861,229.828649,296.082377,8734.430116
2610.479190,0.000000,370.102971,8734.430116
2610.479519,0.000000,518.144159,8882.471304
2610.479848,76.609550,-740.205942,9400.615463
2610.480177,-383.047749,-740.205942,9548.656652
2610.480506,-612.876398,-888.247130,9178.553681
2610.480835,-1225.752797,740.205942,8364.327145
2610.481164,-459.657299,518.144159,9030.512492
2610.481493,-536.266849,-888.247130,9622.677246
2610.481822,-842.705048,-444.123565,9844.739029
2610.482151,-766.095498,-1702.473667,9696.697840
2610.482480,-842.705048,-518.144159,8734.430116
2610.482809,-306.438199,-0.000000,9030.512492
2610.483138,0.000000,-518.144159,9622.677246
2610.483467,459.657299,-962.267725,9548.656652
2610.483796,1072.533697,-666.185348,9400.615463
2610.484125,1378.971896,-148.041188,8660.409521
2610.484454,1838.629195,962.267725,8438.347739
2610.484783,1762.019645,1406.391290,7624.121203
2610.485112,1685.410096,962.267725,8364.327145
2610.485441,1455.581446,-296.082377,9474.636058
2610.485770,1149.143247,-592.164754,9474.636058
2610.486099,536.266849,-740.205942,9844.739029
2610.486428,0.000000,-0.000000,9178.553681
2610.486757,153.219100,-222.061783,9104.533087
2610.487086,306.438199,-740.205942,9918.759623
2610.487415,612.876398,-1924.535449,9622.677246
2610.487744,536.266849,-888.247130,9252.574275
2610.488073,766.095498,-74.020594,9030.512492
2610.488402,1302.362347,888.247130,8290.306550
2610.488731,842.705048,962.267725,8438.347739
2610.489060,1378.971896,-0.000000,9178.553681
2610.489389,1225.752797,-74.020594,8512.368333
2610.489718,1302.362347,222.061783,9104.533087
2610.490047,1149.143247,666.185348,8660.409521
2610.490377,1149.143247,888.247130,8660.409521
2610.490706,842.705048,-592.164754,9474.636058
2610.491035,1455.581446,-1110.308913,9178.553681
2610.491364,1072.533697,-1110.308913,9030.512492
2610.491693,459.657299,-222.061783,9178.553681
2610.492022,919.314598,222.061783,8512.368333
2610.492351,612.876398,-0.000000,8364.327145
2610.492680,383.047749,-222.061783,9474.636058
2610.493009,306.438199,-666.185348,9030.512492
2610.493338,0.000000,-1110.308913,9030.512492
2610.493667,0.000000,666.185348,9474.636058
2610.493996,0.000000,-74.020594,8808.450710
2610.494325,-153.219100,-444.123565,9030.512492
2610.494654,-306.438199,-888.247130,9548.656652
2610.494983,-229.828649,-1184.329507,9844.739029
2610.495312,-612.876398,-1406.391290,9474.636058
2610.495641,-919.314598,814.226536,9030.512492
2610.495970,-1455.581446,296.082377,8808.450710
2610.496299,-536.266849,-0.000000,9326.594869
2610.496628,-1302.362347,-148.041188,9400.615463
2610.496957,-1149.143247,-518.144159,9104.533087
2610.497286,-1302.362347,-0.000000,9400.615463
2610.497615,-1225.752797,-0.000000,9326.594869
2610.497944,-1455.581446,-296.082377,8734.430116
2610.498273,-612.876398,-1258.350101,9770.718434
2610.498602,-383.047749,-1554.432478,9696.697840
2610.498931,-306.438199,-666.185348,8364.327145
2610.499260,153.219100,-0.000000,8882.471304
2610.499589,383.047749,888.247130,8216.285956
2610.499918,842.705048,962.267725,8734.430116
2610.500247,919.314598,-222.061783,8882.471304
2610.500576,689.485948,-444.123565,8808.450710
2610.500905,0.000000,-74.020594,9474.636058
2610.501234,306.438199,666.185348,8586.388927
2610.501563,76.609550,370.102971,8364.327145
2610.501892,0.000000,-296.082377,9252.574275
2610.502221,306.438199,-1554.432478,9474.636058
2610.502550,459.657299,-1406.391290,9770.718434
2610.502880,-229.828649,-592.164754,9178.553681
2610.503209,306.438199,296.082377,8808.450710
2610.503538,612.876398,-74.020594,9252.574275
2610.503867,919.314598,-0.000000,9474.636058
2610.504196,842.705048,-592.164754,9252.574275
2610.504525,919.314598,148.041188,9918.759623
2610.504854,1915.238745,666.185348,8734.430116
2610.505183,2068.457845,148.041188,8660.409521
2610.505512,2145.067394,-0.000000,9474.636058
2610.505841,2298.286494,-666.185348,9474.636058
2610.506170,2145.067394,-814.226536,9400.615463
2610.506499,1762.019645,-0.000000,9104.533087
2610.506828,1762.019645,518.144159,9104.533087
2610.507157,1762.019645,222.061783,8882.471304
2610.507486,1455.581446,444.123565,9474.636058
2610.507815,1455.581446,-296.082377,9770.718434
2610.508144,842.705048,-148.041188,9474.636058
2610.508473,919.314598,370.102971,9326.594869
2610.508802,919.314598,740.205942,8808.450710
2610.509131,689.485948,-0.000000,8956.491898
2610.509460,1149.143247,-666.185348,9474.636058
2610.509789,842.705048,-1036.288319,9548.656652
2610.510118,229.828649,-888.247130,8956.491898
2610.510447,0.000000,-148.041188,8734.430116
2610.510776,0.000000,296.082377,8438.347739
2610.511105,76.609550,518.144159,9030.512492
2610.511434,229.828649,-222.061783,9252.574275
2610.511763,-306.438199,-444.123565,9400.615463
2610.512092,-76.609550,-148.041188,9104.533087
2610.512421,0.000000,666.185348,8290.306550
2610.512750,0.000000,518.144159,8364.327145
2610.513079,306.438199,-296.082377,9400.615463
2610.513408,459.657299,-592.164754,8882.471304
2610.513737,536.266849,-444.123565,8956.491898
2610.514066,612.876398,222.061783,8734.430116
2610.514395,0.000000,740.205942,8290.306550
2610.514724,0.000000,666.185348,8660.409521
2610.515054,-536.266849,-296.082377,9030.512492
2610.515383,-995.924147,-962.267725,8956.491898
2610.515712,-1225.752797,-592.164754,9400.615463
2610.516041,-1455.581446,-0.000000,9326.594869
2610.516370,-2145.067394,-814.226536,9622.677246
2610.516699,-1685.410096,-1036.288319,9918.759623
2610.517028,-1455.581446,-1924.535449,9770.718434
2610.517357,-1915.238745,-1406.391290,10214.842000
2610.517686,-1608.800546,-592.164754,9252.574275
2610.518015,-995.924147,296.082377,8882.471304
2610.518344,-383.047749,222.061783,8290.306550
2610.518673,-383.047749,-74.020594,8882.471304
2610.519002,459.657299,-592.164754,9178.553681
2610.519331,-229.828649,-0.000000,8956.491898
2610.519660,383.047749,370.102971,8734.430116
2610.519989,612.876398,296.082377,8586.388927
2610.520318,459.657299,-444.123565,8808.450710
2610.520647,306.438199,-666.185348,8734.430116
2610.520976,1072.533697,-1258.350101,8808.450710
2610.521305,995.924147,-222.061783,7994.224174
2610.521634,536.266849,518.144159,7846.182985
2610.521963,1072.533697,148.041188,9474.636058
2610.522292,1532.190996,592.164754,9400.615463
2610.522621,919.314598,-444.123565,8808.450710
2610.522950,1455.581446,-0.000000,9696.697840
2610.523279,1302.362347,74.020594,9178.553681
2610.523608,2068.457845,1332.370696,8364.327145
2610.523937,1838.629195,444.123565,8142.265362
2610.524266,1838.629195,-444.123565,9030.512492
2610.524595,1532.190996,-666.185348,9326.594869
2610.524924,1455.581446,-592.164754,9474.636058
2610.525253,1149.143247,-0.000000,8734.430116
2610.525582,766.095498,740.205942,8956.491898
2610.525911,1608.800546,-0.000000,9844.739029
2610.526240,842.705048,-740.205942,9918.759623
2610.526569,842.705048,-814.226536,9770.718434
2610.526898,536.266849,-222.061783,9844.739029
2610.527228,919.314598,444.123565,9104.533087
2610.527557,306.438199,-74.020594,9696.697840
2610.527886,995.924147,-444.123565,9696.697840
2610.528215,1838.629195,-518.144159,9104.533087
2610.528544,1762.019645,-296.082377,8142.265362
2610.528873,1838.629195,518.144159,8068.244768
2610.529202,1838.629195,1110.308913,7772.162391
2610.529531,1149.143247,666.185348,8438.347739
2610.529860,536.266849,-666.185348,9178.553681
2610.530189,153.219100,-666.185348,9400.615463
2610.530518,-536.266849,-444.123565,9178.553681
2610.530847,-766.095498,-0.000000,9104.533087
2610.531176,-1378.971896,-222.061783,8882.471304
2610.531505,-612.876398,-888.247130,9696.697840
2610.531834,-689.485948,-666.185348,9326.594869
2610.532163,-766.095498,-1036.288319,9844.739029
2610.532492,-1915.238745,-0.000000,9474.636058
2610.532821,0.000000,1332.370696,8438.347739
2610.533150,-919.314598,814.226536,7772.162391
2610.533479,-383.047749,222.061783,8956.491898
2610.533808,-1072.533697,-962.267725,8734.430116
2610.534137,-1685.410096,-222.061783,9104.533087
2610.534466,-1302.362347,-666.185348,9474.636058
2610.534795,-995.924147,-222.061783,8364.327145
2610.535124,-1378.971896,-962.267725,9104.533087
2610.535453,-842.705048,-1184.329507,9548.656652
2610.535782,-919.314598,-1628.453072,9252.574275
2610.536111,-995.924147,-296.082377,9326.594869
2610.536440,-536.266849,370.102971,9326.594869
2610.536769,-612.876398,592.164754,8882.471304
2610.537098,76.609550,-0.000000,8956.491898
2610.537427,0.000000,-222.061783,9696.697840
2610.537756,229.828649,-518.144159,9474.636058
2610.538085,229.828649,444.123565,8734.430116
2610.538414,0.000000,592.164754,8438.347739
2610.538743,459.657299,-0.000000,9252.574275
2610.539072,459.657299,-888.247130,9548.656652
2610.539402,689.485948,-1036.288319,9400.615463
2610.539731,-153.219100,-1036.288319,9178.553681
2610.540060,-229.828649,222.061783,8734.430116
2610.540389,76.609550,370.102971,9252.574275
2610.540718,0.000000,148.041188,9178.553681
2610.541048,0.000000,-0.000000,9696.697840
2610.541377,229.828649,-962.267725,9696.697840
2610.541706,459.657299,-0.000000,9474.636058
2610.542035,766.095498,1036.288319,8882.471304
2610.542364,995.924147,518.144159,9104.533087
2610.542694,919.314598,-444.123565,9474.636058
2610.543023,1685.410096,-740.205942,9548.656652
2610.543352,2068.457845,-0.000000,8734.430116
2610.543681,2374.896044,518.144159,8586.388927
2610.544010,2298.286494,1258.350101,7994.224174
2610.544340,2374.896044,1036.288319,8734.430116
2610.544669,2528.115143,-370.102971,9178.553681
2610.544998,2145.067394,-666.185348,8586.388927
2610.545327,1378.971896,-296.082377,9696.697840
2610.545656,842.705048,888.247130,8734.430116
2610.545986,1149.143247,518.144159,8734.430116
2610.546315,1302.362347,-888.247130,9104.533087
2610.546644,1762.019645,-1480.411884,10140.821405
2610.546973,919.314598,-1480.411884,10140.821405
2610.547302,536.266849,-518.144159,9548.656652
2610.547632,766.095498,-222.061783,8290.306550
2610.547961,536.266849,1110.308913,8290.306550
2610.548290,306.438199,666.185348,9548.656652
2610.548619,0.000000,-666.185348,9326.594869
2610.548948,-306.438199,-0.000000,9474.636058
2610.549277,-229.828649,-74.020594,9252.574275
2610.549607,0.000000,-370.102971,8882.471304
2610.549936,-995.924147,-1258.350101,9474.636058
2610.550265,-612.876398,-1628.453072,9992.780217
2610.550594,-612.876398,-1628.453072,9252.574275
2610.550923,-612.876398,-740.205942,9400.615463
2610.551253,0.000000,296.082377,7994.224174
2610.551582,0.000000,592.164754,8512.368333
2610.551911,0.000000,-0.000000,8734.430116
2610.552240,76.609550,-74.020594,8512.368333
2610.552569,0.000000,-148.041188,9178.553681
2610.552899,-536.266849,444.123565,8512.368333
2610.553228,-612.876398,888.247130,8216.285956
2610.553557,-842.705048,-518.144159,8734.430116
2610.553886,-536.266849,-1184.329507,9252.574275
2610.554215,-842.705048,-1776.494261,9696.697840
2610.554545,-2068.457845,-1332.370696,9104.533087
2610.554874,-1838.629195,-222.061783,8882.471304
2610.555203,-1762.019645,148.041188,8808.450710
2610.555532,-1378.971896,-0.000000,8808.450710
2610.555861,-1532.190996,-1184.329507,9474.636058
2610.556191,-1149.143247,-1258.350101,9178.553681
2610.556520,-1149.143247,-518.144159,9696.697840
2610.556849,0.000000,222.061783,8512.368333
2610.557178,76.609550,222.061783,8808.450710
2610.557507,919.314598,-0.000000,8808.450710
2610.557837,1225.752797,-444.123565,8734.430116
2610.558166,1302.362347,962.267725,9326.594869
2610.558495,2221.676944,444.123565,8364.327145
2610.558824,2068.457845,1258.350101,8290.306550
2610.559153,2068.457845,888.247130,8586.388927
2610.559482,1225.752797,-370.102971,9622.677246
2610.559812,459.657299,-666.185348,9770.718434
2610.560141,612.876398,-370.102971,9474.636058
2610.560470,995.924147,-148.041188,9326.594869
2610.560799,842.705048,-0.000000,9252.574275
2610.561128,1149.143247,-592.164754,9992.780217
2610.561458,1302.362347,-1110.308913,9474.636058
2610.561787,1378.971896,-666.185348,9400.615463
2610.562116,919.314598,-0.000000,9104.533087
2610.562445,1455.581446,962.267725,8882.471304
2610.562774,1149.143247,740.205942,8882.471304
2610.563104,1455.581446,444.123565,9252.574275
2610.563433,1225.752797,-0.000000,8882.471304
2610.563762,1072.533697,-0.000000,9252.574275
2610.564091,1225.752797,370.102971,9030.512492
2610.564420,842.705048,-0.000000,9104.533087
2610.564750,842.705048,-444.123565,9030.512492
2610.565079,1302.362347,-962.267725,8882.471304
2610.565408,766.095498,-888.247130,9252.574275
2610.565737,1225.752797,-148.041188,9548.656652
2610.566066,766.095498,740.205942,9178.553681
2610.566396,1072.533697,888.247130,8808.450710
2610.566725,1072.533697,592.164754,8882.471304
2610.567054,1149.143247,370.102971,9400.615463
2610.567383,306.438199,-148.041188,9326.594869
2610.567712,919.314598,592.164754,9030.512492
2610.568042,766.095498,444.123565,8290.306550
2610.568371,842.705048,-0.000000,8660.409521
2610.568700,306.438199,-888.247130,8808.450710
2610.569029,153.219100,-1702.473667,9104.533087
2610.569358,-383.047749,-1036.288319,8808.450710
2610.569687,0.000000,-222.061783,7846.182985
2610.570017,-842.705048,-0.000000,7994.224174
2610.570346,-383.047749,-0.000000,9178.553681
2610.570675,-919.314598,-1036.288319,9696.697840
2610.571004,-995.924147,-1702.473667,9326.594869
2610.571333,-1225.752797,-666.185348,9400.615463
2610.571663,-1302.362347,-444.123565,9326.594869
2610.571992,-1225.752797,-666.185348,9326.594869
2610.572321,-766.095498,-1110.308913,9696.697840
2610.572650,0.000000,-1480.411884,9178.553681
2610.572979,0.000000,-814.226536,8956.491898
2610.573309,0.000000,-444.123565,8512.368333
2610.573638,0.000000,518.144159,8216.285956
2610.573967,0.000000,-0.000000,8586.388927
2610.574296,76.609550,-370.102971,8956.491898
2610.574625,-229.828649,-666.185348,8808.450710
2610.574955,689.485948,-444.123565,9252.574275
2610.575284,153.219100,444.123565,8438.347739
2610.575613,0.000000,-0.000000,8882.471304
2610.575942,0.000000,-518.144159,9400.615463
2610.576271,0.000000,-814.226536,9696.697840
2610.576601,-306.438199,-1184.329507,9474.636058
2610.576930,-383.047749,-222.061783,9474.636058
2610.577259,0.000000,1036.288319,8512.368333
2610.577588,-383.047749,740.205942,8586.388927
2610.577917,766.095498,444.123565,9400.615463
2610.578247,459.657299,-962.267725,9400.615463
2610.578576,0.000000,-222.061783,9400.615463
2610.578905,919.314598,-740.205942,9326.594869
2610.579234,1149.143247,-0.000000,8290.306550
2610.579563,995.924147,222.061783,8142.265362
2610.579892,1762.019645,-222.061783,9770.718434
2610.580222,1838.629195,-888.247130,8734.430116
2610.580551,1685.410096,666.185348,8956.491898
2610.580880,2298.286494,962.267725,8512.368333
2610.581209,1838.629195,1036.288319,8438.347739
2610.581538,1149.143247,-0.000000,9992.780217
2610.581868,1608.800546,-740.205942,10510.924376
2610.582197,1072.533697,-1554.432478,9844.739029
2610.582526,842.705048,296.082377,9548.656652
2610.582855,766.095498,370.102971,9252.574275
2610.583184,1149.143247,-296.082377,9696.697840
2610.583514,1072.533697,-592.164754,9474.636058
2610.583843,1762.019645,-370.102971,9474.636058
2610.584172,612.876398,-0.000000,9400.615463
2610.584501,1455.581446,962.267725,8512.368333
2610.584830,1225.752797,1702.473667,8142.265362
2610.585160,995.924147,666.185348,8882.471304
2610.585489,153.219100,-0.000000,9030.512492
2610.585818,0.000000,-518.144159,9178.553681
2610.586147,-383.047749,-296.082377,9770.718434
2610.586476,-766.095498,740.205942,9844.739029
2610.586806,-306.438199,-370.102971,9252.574275
2610.587135,-383.047749,-444.123565,9030.512492
2610.587464,0.000000,-1036.288319,9326.594869
2610.587793,-383.047749,-296.082377,8660.409521
2610.588122,-229.828649,-0.000000,8660.409521
2610.588452,0.000000,1184.329507,8660.409521
2610.588781,0.000000,740.205942,8142.265362
2610.589110,153.219100,-0.000000,8068.244768
2610.589439,-766.095498,-888.247130,9844.739029
2610.589768,-842.705048,-740.205942,9326.594869
2610.590097,-689.485948,148.041188,8216.285956
2610.590427,-995.924147,-222.061783,8734.430116
2610.590756,-306.438199,-1258.350101,9178.553681
2610.591085,-842.705048,-2146.597232,9474.636058
2610.591414,-1378.971896,-1628.453072,9104.533087
2610.591743,-612.876398,-592.164754,8734.430116
2610.592073,-766.095498,370.102971,8512.368333
2610.592402,-536.266849,592.164754,8882.471304
2610.592731,-383.047749,148.041188,9400.615463
2610.593060,0.000000,-888.247130,9400.615463
2610.593389,-1072.533697,-962.267725,9474.636058
2610.593719,-842.705048,-592.164754,9844.739029
2610.594048,-536.266849,-148.041188,9178.553681
2610.594377,-229.828649,-1184.329507,9474.636058
2610.594706,0.000000,-1406.391290,9992.780217
2610.595035,76.609550,-1628.453072,9474.636058
2610.595365,766.095498,-370.102971,9178.553681
2610.595694,1302.362347,1110.308913,8438.347739
2610.596023,1915.238745,888.247130,8364.327145
2610.596352,1915.238745,666.185348,9178.553681
2610.596681,2145.067394,370.102971,9030.512492
2610.597011,1608.800546,148.041188,9178.553681
2610.597340,1455.581446,740.205942,8956.491898
2610.597669,1378.971896,296.082377,8438.347739
2610.597998,1225.752797,-222.061783,9400.615463
2610.598327,1378.971896,-222.061783,9252.574275
2610.598657,995.924147,-1036.288319,9474.636058
2610.598986,842.705048,-370.102971,9548.656652
2610.599315,1149.143247,666.185348,8956.491898
2610.599644,1149.143247,814.226536,8586.388927
2610.599973,1149.143247,666.185348,9104.533087
2610.600302,1225.752797,-0.000000,9548.656652
2610.600632,766.095498,-518.144159,9548.656652
2610.600961,536.266849,222.061783,9400.615463
2610.601290,995.924147,666.185348,9104.533087
2610.601619,995.924147,296.082377,9104.533087
2610.601948,1378.971896,-296.082377,9030.512492
2610.602278,1149.143247,-888.247130,9030.512492
2610.602607,689.485948,148.041188,9844.739029
2610.602936,1072.533697,-148.041188,8512.368333
2610.603265,689.485948,666.185348,8734.430116
2610.603594,919.314598,592.164754,9178.553681
2610.603924,689.485948,-222.061783,8956.491898
2610.604253,0.000000,-888.247130,9622.677246
2610.604582,612.876398,-296.082377,9844.739029
2610.604911,76.609550,-222.061783,8660.409521
2610.605240,306.438199,-222.061783,8364.327145
2610.605570,0.000000,-740.205942,8512.368333
2610.605899,306.438199,-1110.308913,9400.615463
2610.606228,-383.047749,-1258.350101,8586.388927
2610.606557,-306.438199,-740.205942,8808.450710
2610.606886,-383.047749,370.102971,8290.306550
2610.607216,-153.219100,-148.041188,8216.285956
2610.607545,-995.924147,-148.041188,9178.553681
2610.607874,-995.924147,-592.164754,9474.636058
2610.608203,-1838.629195,-740.205942,10066.800811
2610.608532,-1532.190996,222.061783,9400.615463
2610.608862,-1225.752797,370.102971,9178.553681
2610.609191,-612.876398,-296.082377,9326.594869
2610.609520,-383.047749,-1332.370696,9696.697840
2610.609849,-995.924147,-1110.308913,9844.739029
2610.610178,-306.438199,-370.102971,8660.409521
2610.610507,0.000000,592.164754,8512.368333
2610.610837,153.219100,518.144159,8290.306550
2610.611166,306.438199,-0.000000,8364.327145
2610.611495,153.219100,-888.247130,9696.697840
2610.611824,536.266849,-814.226536,9474.636058
2610.612153,306.438199,-148.041188,9030.512492
2610.612483,229.828649,370.102971,8660.409521
2610.612812,0.000000,-0.000000,8882.471304
2610.613141,536.266849,-1110.308913,9696.697840
2610.613470,689.485948,-1184.329507,9474.636058
2610.613799,536.266849,-444.123565,8808.450710
2610.614129,76.609550,666.185348,8956.491898
2610.614458,842.705048,888.247130,8142.265362
2610.614787,1455.581446,962.267725,8290.306550
2610.615116,842.705048,-888.247130,8808.450710
2610.615445,0.000000,-888.247130,9918.759623
2610.615775,995.924147,-592.164754,10362.883188
2610.616104,0.000000,-0.000000,8586.388927
2610.616433,383.047749,-518.144159,9252.574275
2610.616762,919.314598,-1480.411884,9992.780217
2610.617091,995.924147,-1110.308913,9474.636058
2610.617421,1608.800546,-1184.329507,9104.533087
2610.617750,1762.019645,-148.041188,8438.347739
2610.618079,1685.410096,1036.288319,8142.265362
2610.618408,2145.067394,1110.308913,8438.347739
2610.618737,2221.676944,444.123565,8808.450710
2610.619067,2145.067394,370.102971,8956.491898
2610.619396,1991.848295,-0.000000,9400.615463
2610.619725,1378.971896,814.226536,9104.533087
2610.620054,1302.362347,370.102971,8734.430116
2610.620383,1302.362347,-370.102971,9178.553681
2610.620712,1225.752797,-962.267725,9474.636058
2610.621042,459.657299,-814.226536,9474.636058
2610.621371,995.924147,-666.185348,9252.574275
2610.621700,766.095498,666.185348,8290.306550
2610.622029,919.314598,296.082377,8290.306550
2610.622358,459.657299,296.082377,8956.491898
2610.622688,0.000000,-814.226536,9178.553681
2610.623017,-306.438199,-592.164754,9178.553681
2610.623346,76.609550,-370.102971,8882.471304
2610.623675,-306.438199,-0.000000,8142.265362
2610.624004,0.000000,-74.020594,9326.594869
2610.624334,459.657299,-518.144159,8808.450710
2610.624663,-306.438199,-814.226536,9474.636058
2610.624992,-229.828649,-222.061783,8808.450710
2610.625321,0.000000,444.123565,8734.430116
2610.625650,-919.314598,888.247130,9474.636058
2610.625980,-459.657299,-0.000000,9252.574275
2610.626309,-1455.581446,-518.144159,9474.636058
2610.626638,-459.657299,-962.267725,9622.677246
2610.626967,-766.095498,148.041188,9326.594869
2610.627296,-1608.800546,-74.020594,9030.512492
2610.627626,-1225.752797,-1184.329507,9548.656652
2610.627955,-689.485948,-740.205942,9548.656652
2610.628284,-612.876398,-1406.391290,9622.677246
2610.628613,-766.095498,-1110.308913,9400.615463
2610.628942,-842.705048,-444.123565,9252.574275
2610.629272,-383.047749,962.267725,8364.327145
2610.629601,-306.438199,296.082377,8882.471304
2610.629930,-383.047749,-444.123565,9252.574275
2610.630259,0.000000,-962.267725,9400.615463
2610.630588,306.438199,-222.061783,9474.636058
2610.630917,-153.219100,-740.205942,8808.450710
2610.631247,459.657299,-370.102971,8808.450710
2610.631576,612.876398,-0.000000,9030.512492
2610.631905,1302.362347,-518.144159,9030.512492
2610.632234,1302.362347,-222.061783,8808.450710
2610.632563,1225.752797,222.061783,8512.368333
2610.632893,1685.410096,444.123565,7920.203579
2610.633222,1762.019645,740.205942,8216.285956
2610.633551,1455.581446,296.082377,9030.512492
2610.633880,919.314598,-1036.288319,9178.553681
2610.634209,766.095498,-296.082377,9252.574275
2610.634539,766.095498,296.082377,8734.430116
2610.634868,919.314598,-222.061783,8882.471304
2610.635197,1149.143247,-592.164754,9918.759623
2610.635526,1762.019645,-962.267725,9696.697840
2610.635855,1455.581446,-666.185348,9178.553681
2610.636185,1455.581446,-74.020594,9178.553681
2610.636514,1991.848295,1554.432478,8142.265362
2610.636843,2221.676944,1332.370696,8216.285956
2610.637172,2068.457845,1110.308913,8586.388927
2610.637501,1915.238745,-74.020594,8956.491898
2610.637831,1302.362347,-74.020594,9252.574275
2610.638160,995.924147,-74.020594,9400.615463
2610.638489,383.047749,-518.144159,9326.594869
2610.638818,0.000000,-1110.308913,9622.677246
2610.639147,306.438199,-1850.514855,10214.842000
2610.639477,153.219100,-1480.411884,9474.636058
2610.639806,0.000000,-1036.288319,9918.759623
2610.640135,689.485948,-0.000000,9326.594869
2610.640464,1149.143247,666.185348,8808.450710
2610.640793,1225.752797,814.226536,9104.533087
2610.641122,1302.362347,-0.000000,9178.553681
2610.641452,919.314598,296.082377,9400.615463
2610.641781,842.705048,962.267725,8734.430116
2610.642110,995.924147,1406.391290,8364.327145
2610.642439,536.266849,222.061783,8512.368333
2610.642768,612.876398,-518.144159,9326.594869
2610.643097,0.000000,-962.267725,9030.512492
2610.643426,-1149.143247,-740.205942,9030.512492
2610.643755,-1225.752797,-148.041188,9104.533087
2610.644085,-1685.410096,666.185348,8956.491898
2610.644414,-2298.286494,-0.000000,9622.677246
2610.644743,-1072.533697,-888.247130,9622.677246
2610.645072,-1532.190996,-1110.308913,9548.656652
2610.645401,-1608.800546,-518.144159,9474.636058
2610.645730,-995.924147,666.185348,8808.450710
2610.646059,-1072.533697,-148.041188,8438.347739
2610.646389,-689.485948,-222.061783,9474.636058
2610.646718,76.609550,-962.267725,9326.594869
2610.647047,-1072.533697,-962.267725,8956.491898
2610.647376,0.000000,148.041188,8586.388927
2610.647705,0.000000,518.144159,7994.224174
2610.648034,-306.438199,222.061783,8364.327145
2610.648363,-536.266849,-222.061783,9474.636058
2610.648692,-842.705048,-1406.391290,9548.656652
2610.649022,-1378.971896,-962.267725,9474.636058
2610.649351,-536.266849,-296.082377,9252.574275
2610.649680,-842.705048,-296.082377,9474.636058
2610.650009,-1072.533697,-888.247130,9474.636058
2610.650338,0.000000,-1480.411884,9696.697840
2610.650667,153.219100,-1554.432478,9400.615463
2610.650996,153.219100,-222.061783,9030.512492
2610.651325,842.705048,222.061783,8586.388927
2610.651655,1838.629195,1036.288319,8216.285956
2610.651984,1991.848295,740.205942,8734.430116
2610.652313,1838.629195,-0.000000,8956.491898
2610.652642,1762.019645,-0.000000,9326.594869
2610.652971,1762.019645,814.226536,8290.306550
2610.653300,1685.410096,1036.288319,8290.306550
2610.653629,1608.800546,-666.185348,9400.615463
2610.653958,1762.019645,-1332.370696,9548.656652
2610.654288,1762.019645,-1036.288319,9326.594869
2610.654617,1225.752797,-592.164754,9474.636058
2610.654946,1225.752797,370.102971,8586.388927
2610.655275,1455.581446,888.247130,8882.471304
2610.655604,1685.410096,592.164754,9178.553681
2610.655933,1991.848295,-296.082377,10066.800811
2610.656262,1532.190996,-518.144159,10436.903782
2610.656591,2068.457845,962.267725,8734.430116
2610.656921,1532.190996,888.247130,8290.306550
2610.657250,1685.410096,962.267725,9178.553681
2610.657579,2374.896044,-1184.329507,9400.615463
2610.657908,766.095498,-444.123565,8364.327145
2610.658237,2068.457845,-370.102971,8956.491898
2610.658566,1225.752797,148.041188,8364.327145
2610.658895,383.047749,1924.535449,9252.574275
2610.659224,919.314598,-222.061783,9548.656652
2610.659554,0.000000,-0.000000,9474.636058
2610.659883,-919.314598,-370.102971,10288.862594
2610.660212,0.000000,-222.061783,10288.862594
2610.660541,-919.314598,222.061783,9178.553681
2610.660870,0.000000,-74.020594,9474.636058
2610.661199,0.000000,-888.247130,9918.759623
2610.661528,-383.047749,-962.267725,9326.594869
2610.661858,-536.266849,-1184.329507,9548.656652
2610.662187,153.219100,296.082377,8216.285956
2610.662516,0.000000,296.082377,8364.327145
2610.662845,0.000000,370.102971,7994.224174
2610.663174,229.828649,-0.000000,8734.430116
2610.663503,-689.485948,-888.247130,8882.471304
2610.663832,-689.485948,-518.144159,9030.512492
2610.664161,-612.876398,740.205942,8438.347739
2610.664491,-1149.143247,-74.020594,8734.430116
2610.664820,-842.705048,-444.123565,9104.533087
2610.665149,-995.924147,-1480.411884,9548.656652
2610.665478,-1608.800546,-1554.432478,9400.615463
2610.665807,-1378.971896,-666.185348,9178.553681
2610.666136,-1072.533697,148.041188,8808.450710
2610.666465,-1225.752797,370.102971,8068.244768
2610.666794,-842.705048,-370.102971,8882.471304
2610.667124,-995.924147,-1258.350101,8808.450710
2610.667453,-1072.533697,-1406.391290,8882.471304
2610.667782,-306.438199,-370.102971,8734.430116
2610.668111,76.609550,-0.000000,7920.203579
2610.668440,153.219100,-370.102971,8586.388927
2610.668769,459.657299,-962.267725,8882.471304
2610.669098,1225.752797,-814.226536,8660.409521
2610.669427,842.705048,-74.020594,8808.450710
2610.669757,1225.752797,888.247130,8512.368333
2610.670086,1762.019645,962.267725,8216.285956
2610.670415,919.314598,740.205942,9770.718434
2610.670744,1225.752797,-518.144159,9474.636058
2610.671073,306.438199,-222.061783,9326.594869
2610.671402,995.924147,-148.041188,9474.636058
2610.671731,842.705048,148.041188,8956.491898
2610.672060,229.828649,-0.000000,9696.697840
2610.672390,2145.067394,-1258.350101,10510.924376
2610.672719,1149.143247,-1628.453072,9400.615463
2610.673048,766.095498,-518.144159,9992.780217
2610.673377,1608.800546,370.102971,9326.594869
2610.673706,1455.581446,1184.329507,8142.265362
2610.674035,1378.971896,1036.288319,9400.615463
2610.674364,2221.676944,-74.020594,9474.636058
2610.674693,1608.800546,-666.185348,9918.759623
2610.675023,1762.019645,296.082377,9992.780217
2610.675352,1838.629195,592.164754,9104.533087
2610.675681,1302.362347,296.082377,9030.512492
2610.676010,1455.581446,-74.020594,9548.656652
2610.676339,2298.286494,-370.102971,9104.533087
2610.676668,919.314598,-222.061783,9474.636058
2610.676997,1991.848295,-0.000000,9030.512492
2610.677326,1762.019645,1628.453072,8290.306550
2610.677656,689.485948,1036.288319,8808.450710
2610.677985,919.314598,222.061783,9400.615463
2610.678314,919.314598,-74.020594,9030.512492
2610.678643,0.000000,-296.082377,9326.594869
2610.678972,536.266849,666.185348,8808.450710
2610.679301,76.609550,-370.102971,8512.368333
2610.679630,0.000000,-740.205942,9104.533087
2610.679960,76.609550,-1036.288319,9622.677246
2610.680289,0.000000,-888.247130,9104.533087
2610.680618,-1072.533697,-666.185348,9104.533087
2610.680947,-689.485948,740.205942,8438.347739
2610.681276,-1149.143247,740.205942,8364.327145
2610.681605,-766.095498,-0.000000,9326.594869
2610.681934,-1225.752797,-592.164754,9770.718434
2610.682263,-995.924147,-1258.350101,9400.615463
2610.682593,-1991.848295,-74.020594,8808.450710
2610.682922,-1378.971896,-296.082377,8734.430116
2610.683251,-1378.971896,-1332.370696,8956.491898
2610.683580,-1378.971896,-1702.473667,9474.636058
2610.683909,-689.485948,-1776.494261,9474.636058
2610.684238,-306.438199,-1776.494261,8882.471304
2610.684567,-459.657299,-0.000000,8512.368333
2610.684896,76.609550,814.226536,7994.224174
2610.685226,0.000000,-0.000000,8734.430116
2610.685555,0.000000,-666.185348,9400.615463
2610.685884,306.438199,-888.247130,9030.512492
2610.686213,-306.438199,296.082377,8882.471304
2610.686542,229.828649,592.164754,8290.306550
2610.686871,76.609550,-518.144159,8808.450710
2610.687200,153.219100,-740.205942,9326.594869
2610.687529,229.828649,-814.226536,9178.553681
2610.687859,229.828649,-740.205942,8808.450710
2610.688188,383.047749,-74.020594,8882.471304
2610.688517,0.000000,296.082377,8512.368333
2610.688846,383.047749,148.041188,9178.553681
2610.689175,229.828649,-814.226536,9400.615463
2610.689504,229.828649,-814.226536,9918.759623
2610.689833,536.266849,-148.041188,9474.636058
2610.690162,842.705048,814.226536,8660.409521
2610.690492,1302.362347,222.061783,9104.533087
2610.690821,2374.896044,-222.061783,9474.636058
2610.691150,2604.724693,-592.164754,9252.574275
2610.691479,2451.505594,-222.061783,9178.553681
2610.691808,2221.676944,592.164754,8660.409521
2610.692137,2604.724693,1258.350101,8142.265362
2610.692466,2374.896044,1110.308913,8808.450710
2610.692795,2451.505594,-0.000000,9400.615463
2610.693125,1302.362347,-0.000000,9770.718434
2610.693454,766.095498,-222.061783,10214.842000
2610.693783,383.047749,296.082377,9548.656652
2610.694112,612.876398,-0.000000,9400.615463
2610.694441,612.876398,-518.144159,9696.697840
2610.694770,766.095498,-814.226536,9918.759623
2610.695099,383.047749,-888.247130,9548.656652
2610.695429,76.609550,-814.226536,9178.553681
2610.695758,536.266849,592.164754,8882.471304
2610.696087,459.657299,814.226536,9030.512492
2610.696416,459.657299,222.061783,9030.512492
2610.696745,76.609550,-0.000000,8882.471304
2610.697074,0.000000,222.061783,9474.636058
2610.697403,0.000000,222.061783,9104.533087
2610.697732,229.828649,-0.000000,8586.388927
2610.698062,0.000000,-296.082377,8734.430116
2610.698391,383.047749,-592.164754,9770.718434
2610.698720,306.438199,-666.185348,8586.388927
2610.699049,0.000000,-0.000000,8512.368333
2610.699378,612.876398,740.205942,7920.203579
2610.699707,459.657299,888.247130,8142.265362
2610.700036,0.000000,-0.000000,8956.491898
2610.700365,0.000000,-740.205942,9030.512492
2610.700695,-842.705048,-1036.288319,9178.553681
2610.701024,-1072.533697,-592.164754,9030.512492
2610.701353,-1455.581446,148.041188,8512.368333
2610.701682,-1608.800546,-1332.370696,9548.656652
2610.702011,-1455.581446,-740.205942,9992.780217
2610.702340,-1225.752797,-1406.391290,9918.759623
2610.702669,-1838.629195,-1406.391290,9918.759623
2610.702998,-1608.800546,222.061783,8586.388927
2610.703328,-995.924147,740.205942,8290.306550
2610.703657,-612.876398,518.144159,9252.574275
2610.703986,-689.485948,-74.020594,8956.491898
2610.704315,-459.657299,-1036.288319,9252.574275
2610.704644,0.000000,-0.000000,8956.491898
2610.704973,153.219100,222.061783,8660.409521
2610.705302,383.047749,-0.000000,8734.430116
2610.705631,229.828649,-888.247130,9400.615463
2610.705961,766.095498,-1110.308913,9696.697840
2610.706290,689.485948,-444.123565,9030.512492
2610.706619,919.314598,370.102971,8512.368333
2610.706948,689.485948,814.226536,8290.306550
2610.707277,1225.752797,-370.102971,9400.615463
2610.707606,919.314598,296.082377,8956.491898
2610.707935,153.219100,-518.144159,9844.739029
2610.708264,153.219100,-148.041188,10510.924376
2610.708594,919.314598,740.205942,9770.718434
2610.708923,459.657299,-0.000000,9178.553681
2610.709252,1838.629195,-222.061783,9326.594869
2610.709581,1608.800546,-1554.432478,9696.697840
2610.709910,1378.971896,-814.226536,8290.306550
2610.710239,1915.238745,-74.020594,9030.512492
2610.710568,1685.410096,962.267725,7846.182985
2610.710898,1302.362347,740.205942,8290.306550
2610.711227,1915.238745,370.102971,9474.636058
2610.711556,1532.190996,-814.226536,9326.594869
2610.711885,919.314598,-370.102971,9696.697840
2610.712214,1685.410096,518.144159,8808.450710
2610.712543,1378.971896,962.267725,8734.430116
2610.712872,1302.362347,-0.000000,8586.388927
2610.713201,1838.629195,-370.102971,8956.491898
2610.713531,1838.629195,-666.185348,9474.636058
2610.713860,1685.410096,-518.144159,9104.533087
2610.714189,1532.190996,592.164754,7994.224174
2610.714518,1072.533697,592.164754,8216.285956
2610.714847,1225.752797,-0.000000,8808.450710
2610.715176,536.266849,-666.185348,9104.533087
2610.715505,0.000000,-814.226536,9770.718434
2610.715834,229.828649,-518.144159,8882.471304
2610.716164,-1149.143247,296.082377,8512.368333
2610.716493,229.828649,-1036.288319,8956.491898
2610.716822,0.000000,-1184.329507,9548.656652
2610.717151,-919.314598,-1258.350101,9918.759623
2610.717480,-459.657299,-888.247130,9474.636058
2610.717809,-383.047749,666.185348,8438.347739
2610.718138,-229.828649,1776.494261,8068.244768
2610.718467,-536.266849,1110.308913,8882.471304
2610.718797,-536.266849,-518.144159,9548.656652
2610.719126,-1532.190996,-222.061783,8512.368333
2610.719455,-1072.533697,-518.144159,9178.553681
2610.719784,-2068.457845,-370.102971,8364.327145
2610.720113,-2374.896044,-592.164754,9770.718434
2610.720442,-1608.800546,-1332.370696,10510.924376
2610.720771,-1455.581446,-2368.659014,9770.718434
2610.721100,-919.314598,-1258.350101,9770.718434
2610.721430,-612.876398,-74.020594,8364.327145
2610.721759,0.000000,962.267725,8438.347739
2610.722088,0.000000,740.205942,8882.471304
2610.722417,1072.533697,296.082377,8956.491898
2610.722746,995.924147,-0.000000,9252.574275
2610.723075,459.657299,-0.000000,8660.409521
2610.723404,1225.752797,740.205942,8142.265362
2610.723733,919.314598,-0.000000,8734.430116
2610.724063,919.314598,-444.123565,8956.491898
2610.724392,919.314598,-1258.350101,8956.491898
2610.724721,76.609550,-1480.411884,9400.615463
2610.725050,-153.219100,-518.144159,9474.636058
2610.725379,0.000000,-0.000000,8512.368333
2610.725708,0.000000,370.102971,8512.368333
2610.726037,0.000000,-592.164754,9400.615463
2610.726366,0.000000,-518.144159,10140.821405
2610.726696,306.438199,-1036.288319,9770.718434
2610.727025,689.485948,-0.000000,9178.553681
2610.727354,689.485948,222.061783,9252.574275
2610.727683,1991.848295,-148.041188,8956.491898
2610.728012,2145.067394,-518.144159,8956.491898
2610.728341,2451.505594,-518.144159,8734.430116
2610.728670,2604.724693,-0.000000,8216.285956
2610.729000,2451.505594,1036.288319,8290.306550
2610.729329,2068.457845,1258.350101,8068.244768
2610.729658,1685.410096,296.082377,8586.388927
2610.729987,766.095498,-0.000000,9400.615463
2610.730316,919.314598,-814.226536,9400.615463
2610.730645,306.438199,-0.000000,9918.759623
2610.730974,0.000000,222.061783,9474.636058
2610.731303,76.609550,-518.144159,9030.512492
2610.731633,612.876398,-518.144159,9622.677246
2610.731962,536.266849,-1036.288319,9474.636058
2610.732291,612.876398,-962.267725,9400.615463
2610.732620,1072.533697,370.102971,8512.368333
2610.732949,1149.143247,814.226536,8290.306550
2610.733278,689.485948,1184.329507,8586.388927
2610.733607,536.266849,-0.000000,9178.553681
2610.733936,383.047749,-370.102971,9104.533087
2610.734266,153.219100,370.102971,8808.450710
2610.734595,0.000000,370.102971,8660.409521
2610.734924,-306.438199,-296.082377,8734.430116
2610.735253,229.828649,-888.247130,9474.636058
2610.735582,-229.828649,-1332.370696,9252.574275
2610.735911,-383.047749,-1332.370696,9178.553681
2610.736240,-689.485948,-74.020594,8882.471304
2610.736569,-383.047749,370.102971,8216.285956
2610.736899,-459.657299,222.061783,8808.450710
2610.737228,-459.657299,-518.144159,9326.594869
2610.737557,-536.266849,-740.205942,8808.450710
2610.737886,-1149.143247,-518.144159,9696.697840
2610.738215,-1072.533697,148.041188,9252.574275
2610.738544,-919.314598,-222.061783,8808.450710
2610.738873,-689.485948,-1406.391290,9400.615463
2610.739202,-612.876398,-1776.494261,9844.739029
2610.739532,-536.266849,-1480.411884,9770.718434
2610.739861,-1302.362347,-888.247130,9326.594869
2610.740190,-919.314598,444.123565,8734.430116
2610.740519,-995.924147,592.164754,8882.471304
2610.740848,-1225.752797,-0.000000,9178.553681
2610.741178,-842.705048,-814.226536,9474.636058
2610.741507,-1149.143247,-1036.288319,9770.718434
2610.741836,-689.485948,-74.020594,9474.636058
2610.742165,-536.266849,148.041188,8882.471304
2610.742495,0.000000,-148.041188,9474.636058
2610.742824,459.657299,-740.205942,9178.553681
2610.743153,842.705048,-814.226536,8956.491898
2610.743482,536.266849,-444.123565,8734.430116
2610.743812,1149.143247,740.205942,8216.285956
2610.744141,1762.019645,592.164754,8364.327145
2610.744470,1762.019645,222.061783,8734.430116
2610.744799,1685.410096,-444.123565,9474.636058
2610.745128,1455.581446,-74.020594,9104.533087
2610.745458,1838.629195,814.226536,8882.471304
2610.745787,1838.629195,888.247130,8660.409521
2610.746116,1915.238745,-148.041188,8808.450710
2610.746445,1838.629195,-74.020594,8882.471304
2610.746775,2374.896044,-1258.350101,9326.594869
2610.747104,1685.410096,-518.144159,9326.594869
2610.747433,1225.752797,-0.000000,8956.491898
2610.747762,1149.143247,518.144159,8808.450710
2610.748092,766.095498,-0.000000,9400.615463
2610.748421,689.485948,-962.267725,9992.780217
2610.748750,919.314598,-888.247130,9770.718434
2610.749079,766.095498,-74.020594,9844.739029
2610.749408,766.095498,666.185348,8956.491898
2610.749738,919.314598,-0.000000,9104.533087
2610.750067,1685.410096,-0.000000,9400.615463
2610.750396,1685.410096,-222.061783,9030.512492
2610.750725,1762.019645,-0.000000,8882.471304
2610.751055,1072.533697,370.102971,7846.182985
2610.751384,689.485948,1702.473667,8142.265362
2610.751713,-306.438199,1036.288319,8068.244768
2610.752042,-1149.143247,518.144159,9030.512492
2610.752372,-2451.505594,-814.226536,9400.615463
2610.752701,-3294.210641,-666.185348,9622.677246
2610.753030,-3830.477490,-740.205942,9770.718434
2610.753359,-3524.039291,-814.226536,9030.512492
2610.753688,-3907.087040,-1110.308913,9474.636058
2610.754018,-3677.258390,-962.267725,9474.636058
2610.754347,-3753.867940,-1258.350101,9400.615463
2610.754676,-3983.696590,-740.205942,9474.636058
2610.755005,-4136.915689,-148.041188,8882.471304
2610.755335,-3600.648841,-0.000000,8808.450710
2610.755664,-3830.477490,-0.000000,8734.430116
2610.755993,-4519.963438,-74.020594,8808.450710
2610.756322,-4213.525239,-518.144159,9178.553681
2610.756652,-3983.696590,-370.102971,8956.491898
2610.756981,-3753.867940,-296.082377,8586.388927
2610.757310,-4213.525239,-888.247130,8438.347739
2610.757639,-3753.867940,-370.102971,8808.450710
2610.757968,-3370.820191,-962.267725,8068.244768
2610.758298,-2834.553343,-888.247130,8882.471304
2610.758627,-2987.772442,-814.226536,8956.491898
2610.758956,-3140.991542,-888.247130,8882.471304
2610.759285,-3370.820191,-1110.308913,8882.471304
2610.759615,-3217.601092,-148.041188,8808.450710
2610.759944,-2911.162892,-0.000000,9178.553681
2610.760273,-3140.991542,222.061783,8956.491898
2610.760602,-3140.991542,-74.020594,9400.615463
2610.760932,-2681.334243,-148.041188,9252.574275
2610.761261,-2528.115143,-74.020594,8808.450710
2610.761590,-2451.505594,-0.000000,8882.471304
2610.761919,-2604.724693,-0.000000,8808.450710
2610.762248,-2834.553343,-222.061783,8586.388927
2610.762578,-1915.238745,-0.000000,9030.512492
2610.762907,-2068.457845,-518.144159,8290.306550
2610.763236,-2298.286494,-592.164754,8956.491898
2610.763565,-2604.724693,-1332.370696,9178.553681
2610.763895,-2987.772442,-1480.411884,9548.656652
2610.764224,-3677.258390,-1258.350101,10140.821405
2610.764553,-3370.820191,-518.144159,9992.780217
2610.764882,-3140.991542,370.102971,9844.739029
2610.765212,-2681.334243,888.247130,9622.677246
2610.765541,-1915.238745,1184.329507,9326.594869
2610.765870,-1378.971896,370.102971,9178.553681
2610.766199,-995.924147,222.061783,9326.594869
2610.766528,-919.314598,-0.000000,8808.450710
2610.766858,-76.609550,-814.226536,9474.636058
2610.767187,1149.143247,-0.000000,8512.368333
2610.767516,995.924147,1110.308913,7179.997637
2610.767845,2221.676944,1036.288319,7476.080014
2610.768175,1685.410096,1776.494261,6217.729913
2610.768504,995.924147,1480.411884,7550.100608
2610.768833,0.000000,740.205942,7994.224174
2610.769162,-1378.971896,518.144159,8586.388927
2610.769492,-3677.258390,-2294.638420,9992.780217
2610.769821,-3830.477490,-2368.659014,11251.130318
2610.770150,-5209.449386,-2442.679609,10362.883188
2610.770479,-5132.839837,-2072.576638,11177.109724
2610.770809,-5132.839837,-1776.494261,10140.821405
2610.771138,-4903.011187,-1406.391290,11843.295072
2610.771467,-3907.087040,-592.164754,10955.047942
2610.771796,-2834.553343,222.061783,9252.574275
2610.772125,-2068.457845,-0.000000,8512.368333
2610.772455,-1072.533697,2220.617826,6365.771101
2610.772784,-1149.143247,1406.391290,7994.224174
2610.773113,-383.047749,-518.144159,10214.842000
2610.773442,612.876398,1184.329507,5773.606348
2610.773772,1762.019645,518.144159,7105.977043
2610.774101,459.657299,592.164754,5699.585753
2610.774430,-612.876398,592.164754,7698.141797
2610.774759,-2834.553343,-962.267725,9992.780217
2610.775089,-3677.258390,-222.061783,9474.636058
2610.775418,-3294.210641,-1110.308913,9696.697840
2610.775747,-4673.182538,-222.061783,8438.347739
2610.776076,-6511.811733,-1110.308913,10436.903782
2610.776405,-6741.640382,-1258.350101,11251.130318
2610.776735,-6205.373534,-1480.411884,10658.965565
2610.777064,-6128.763984,-1776.494261,9992.780217
2610.777393,-5056.230287,-666.185348,9178.553681
2610.777722,-4673.182538,-74.020594,8216.285956
2610.778052,-4213.525239,-1406.391290,7920.203579
2610.778381,-2987.772442,-888.247130,8586.388927
2610.778710,-2987.772442,444.123565,8068.244768
2610.779039,-1685.410096,-222.061783,8586.388927
2610.779369,-2451.505594,518.144159,8586.388927
2610.779698,-2834.553343,666.185348,9104.533087
2610.780027,-3524.039291,-0.000000,9178.553681
2610.780356,-3447.429741,-148.041188,9770.718434
2610.780685,-3524.039291,592.164754,10140.821405
2610.781015,-3064.381992,666.185348,9844.739029
2610.781344,-2987.772442,1036.288319,9252.574275
2610.781673,-2757.943793,888.247130,8438.347739
2610.782002,-2451.505594,1628.453072,8586.388927
2610.782332,-1455.581446,1110.308913,7772.162391
2610.782661,-1149.143247,1702.473667,6957.935855
2610.782990,-1685.410096,370.102971,8586.388927
2610.783319,-2374.896044,296.082377,8586.388927
2610.783649,-2145.067394,-74.020594,9104.533087
2610.783978,-2681.334243,740.205942,9030.512492
2610.784307,-2451.505594,1036.288319,9030.512492
2610.784636,-2681.334243,962.267725,9548.656652
2610.784965,-2221.676944,1628.453072,10066.800811
2610.785295,-2068.457845,1998.556043,9918.759623
2610.785624,-1762.019645,1184.329507,10807.006753
2610.785953,-2068.457845,592.164754,10732.986159
2610.786282,-1608.800546,740.205942,10214.842000
2610.786612,-1149.143247,370.102971,10066.800811
2610.786941,-1225.752797,962.267725,9400.615463
2610.787270,-919.314598,-0.000000,10362.883188
2610.787599,76.609550,814.226536,10881.027347
2610.787929,2374.896044,1628.453072,8290.306550
2610.788258,3753.867940,3034.844362,6735.874072
2610.788587,3907.087040,3552.988522,6069.688724
2610.788916,3140.991542,4737.318029,6661.853478
2610.789245,3524.039291,4367.215058,8216.285956
2610.789575,2451.505594,5255.462188,7254.018232
2610.789904,2681.334243,3849.070898,8068.244768
2610.790233,995.924147,2590.720797,9252.574275
2610.790562,-612.876398,1850.514855,10510.924376
2610.790892,-1072.533697,1554.432478,9918.759623
2610.791221,-1302.362347,666.185348,10807.006753
2610.791550,-995.924147,1332.370696,10436.903782
2610.791879,0.000000,2146.597232,10066.800811
2610.792209,0.000000,2738.761985,9104.533087
2610.792538,76.609550,2738.761985,8068.244768
2610.792867,1762.019645,3478.967927,7624.121203
2610.793196,1455.581446,4515.256246,6809.894666
2610.793525,1685.410096,4737.318029,7402.059420
2610.793855,919.314598,4071.132681,7920.203579
2610.794184,-1149.143247,2812.782580,8734.430116
2610.794513,-2298.286494,1998.556043,9474.636058
2610.794842,-3140.991542,2072.576638,10066.800811
2610.795172,-3064.381992,1554.432478,11843.295072
2610.795501,-3370.820191,2516.700203,10140.821405
2610.795830,-2757.943793,3034.844362,9844.739029
2610.796159,-3294.210641,3034.844362,9918.759623
2610.796489,-2911.162892,2812.782580,10732.986159
2610.796818,-2145.067394,2368.659014,10732.986159
2610.797147,-1225.752797,3330.926739,9696.697840
2610.797476,-459.657299,2960.823768,9030.512492
2610.797806,-1225.752797,3330.926739,9104.533087
2610.798135,-995.924147,2146.597232,10584.944971
2610.798464,842.705048,1776.494261,11547.212695
2610.798793,2451.505594,4589.276840,6439.791695
2610.799122,3983.696590,4737.318029,7698.141797
2610.799452,2528.115143,5329.482782,6883.915261
2610.799781,2604.724693,7179.997637,6957.935855
2610.800110,1455.581446,5921.647536,7772.162391
2610.800439,1455.581446,4959.379811,8216.285956
2610.800769,1532.190996,6217.729913,8438.347739
2610.801098,766.095498,5329.482782,8512.368333
2610.801427,0.000000,2960.823768,9844.739029
2610.801756,-1762.019645,222.061783,12361.439231
2610.802086,-689.485948,-814.226536,11103.089130
2610.802415,-1149.143247,1702.473667,11473.192101
2610.802744,-383.047749,-592.164754,12213.398043
2610.803073,-1225.752797,3478.967927,7772.162391
2610.803402,1455.581446,2442.679609,10066.800811
2610.803732,1838.629195,5033.400406,7994.224174
2610.804061,2987.772442,5255.462188,7698.141797
2610.804390,3907.087040,5403.503377,7254.018232
2610.804719,3217.601092,4737.318029,7476.080014
2610.805049,1915.238745,4441.235652,8512.368333
2610.805378,-842.705048,1628.453072,8290.306550
2610.805707,-2145.067394,-74.020594,11769.274478
2610.806036,-2451.505594,370.102971,11843.295072
2610.806366,-2068.457845,296.082377,11769.274478
2610.806695,-2528.115143,1184.329507,9770.718434
2610.807024,-1685.410096,1332.370696,9844.739029
2610.807353,-919.314598,2220.617826,9844.739029
2610.807682,-689.485948,1924.535449,9400.615463
2610.808012,1608.800546,1184.329507,11917.315666
2610.808341,2911.162892,2886.803174,7254.018232
2610.808670,5056.230287,2368.659014,8290.306550
2610.808999,3217.601092,3256.906145,6365.771101
2610.809329,3447.429741,4367.215058,6143.709319
2610.809658,3217.601092,3404.947333,7698.141797
2610.809987,2757.943793,4367.215058,6957.935855
2610.810316,1991.848295,4737.318029,6661.853478
2610.810646,842.705048,3775.050304,7328.038826
2610.810975,-3217.601092,370.102971,9770.718434
2610.811304,-3830.477490,-4589.276840,14063.912898
2610.811633,-2834.553343,370.102971,10436.903782
2610.811962,-3064.381992,-3701.029710,11769.274478
2610.812292,-4060.306139,592.164754,9474.636058
2610.812621,-2145.067394,2516.700203,11399.171507
2610.812950,153.219100,2368.659014,9252.574275
2610.813279,0.000000,4663.297435,7031.956449
2610.813609,2374.896044,2664.741391,11103.089130
2610.813938,4519.963438,740.205942,9474.636058
2610.814267,3294.210641,5181.441594,6661.853478
2610.814596,3983.696590,4663.297435,3552.988522
2610.814926,2681.334243,4071.132681,5847.626942
2610.815255,4136.915689,3404.947333,9400.615463
2610.815584,2451.505594,5255.462188,5477.523971
2610.815913,3753.867940,4959.379811,7031.956449
2610.816242,612.876398,4071.132681,7772.162391
2610.816572,-3753.867940,1110.308913,8734.430116
2610.816901,-4136.915689,-4737.318029,15026.180623
2610.817230,-4749.792088,3701.029710,9918.759623
2610.817559,-2298.286494,-4589.276840,11103.089130
2610.817889,-4366.744339,-2442.679609,11325.150913
2610.818218,-2145.067394,1554.432478,14804.118840
2610.818547,-995.924147,962.267725,9992.780217
2610.818876,-2068.457845,2664.741391,8216.285956
2610.819206,76.609550,2368.659014,10510.924376
2610.819535,4060.306139,2220.617826,10510.924376
2610.819864,3064.381992,6661.853478,3404.947333
2610.820193,3983.696590,1628.453072,8068.244768
2610.820522,3064.381992,2738.761985,5995.668130
2610.820852,3907.087040,4219.173869,8142.265362
2610.821181,459.657299,2516.700203,6291.750507
2610.821510,306.438199,3775.050304,9696.697840
2610.821839,-2604.724693,-1110.308913,13471.748144
2610.822169,-1532.190996,-1998.556043,10955.047942
2610.822498,-3064.381992,1036.288319,10732.986159
2610.822827,-3064.381992,-2368.659014,12361.439231
2610.823156,-2451.505594,-222.061783,8882.471304
2610.823486,-995.924147,-888.247130,9770.718434
2610.823815,-995.924147,-814.226536,9918.759623
2610.824144,536.266849,222.061783,9474.636058
2610.824473,2451.505594,1184.329507,5699.585753
2610.824803,4443.353888,4293.194464,5995.668130
2610.825132,2374.896044,5477.523971,4959.379811
2610.825461,2987.772442,2738.761985,8216.285956
2610.825790,1455.581446,3330.926739,8216.285956
2610.826119,1608.800546,1776.494261,8290.306550
2610.826449,-842.705048,-1776.494261,10436.903782
2610.826778,-2451.505594,-666.185348,9178.553681
2610.827107,-3140.991542,-4663.297435,14063.912898
2610.827436,-3447.429741,-2072.576638,12213.398043
2610.827766,-1149.143247,-2220.617826,10436.903782
2610.828095,-1072.533697,-2368.659014,10732.986159
2610.828424,1378.971896,518.144159,9030.512492
2610.828753,2757.943793,2516.700203,6513.812290
2610.829083,4213.525239,1036.288319,6143.709319
2610.829412,3907.087040,3108.864956,6291.750507
2610.829741,4443.353888,1554.432478,7550.100608
2610.830070,2681.334243,2072.576638,7698.141797
2610.830399,2681.334243,1480.411884,7179.997637
2610.830729,2834.553343,-148.041188,8216.285956
2610.831058,0.000000,-1332.370696,10066.800811
2610.831387,-1685.410096,-3775.050304,11399.171507
2610.831716,-2145.067394,-3108.864956,12731.542202
2610.832046,-1991.848295,-3849.070898,12213.398043
2610.832375,-3600.648841,-1776.494261,10881.027347
2610.832704,-2221.676944,-1036.288319,10807.006753
2610.833033,-1685.410096,-962.267725,9474.636058
2610.833363,536.266849,-0.000000,8512.368333
2610.833692,2987.772442,1332.370696,7550.100608
2610.834021,2987.772442,1332.370696,5995.668130
2610.834350,2987.772442,666.185348,6735.874072
2610.834679,3140.991542,148.041188,6439.791695
2610.835009,3064.381992,-1332.370696,7994.224174
2610.835338,766.095498,-2368.659014,8512.368333
2610.835667,153.219100,-3330.926739,9844.739029
2610.835996,-995.924147,-1332.370696,10214.842000
2610.836326,-1762.019645,-1924.535449,10584.944971
2610.836655,-2451.505594,-148.041188,10362.883188
2610.836984,-2298.286494,-1702.473667,11473.192101
2610.837313,-1608.800546,-1258.350101,10955.047942
2610.837643,-689.485948,-370.102971,10584.944971
2610.837972,0.000000,-444.123565,9326.594869
2610.838301,1225.752797,222.061783,8068.244768
2610.838630,2145.067394,-0.000000,7328.038826
2610.838959,2604.724693,-444.123565,7328.038826
2610.839289,2528.115143,-740.205942,6883.915261
2610.839618,1915.238745,-0.000000,7476.080014
2610.839947,1532.190996,666.185348,7328.038826
2610.840276,76.609550,592.164754,8512.368333
2610.840606,-459.657299,-962.267725,10140.821405
2610.840935,-1685.410096,-888.247130,10288.862594
2610.841264,-1991.848295,-1184.329507,10214.842000
2610.841593,-2528.115143,74.020594,11251.130318
2610.841923,-2068.457845,-296.082377,11103.089130
2610.842252,-1072.533697,-74.020594,10066.800811
2610.842581,0.000000,-296.082377,9548.656652
2610.842910,842.705048,-370.102971,9178.553681
2610.843239,1302.362347,814.226536,7698.141797
2610.843568,1685.410096,2072.576638,6439.791695
2610.843897,1608.800546,2220.617826,6365.771101
2610.844227,612.876398,1480.411884,7698.141797
2610.844556,1149.143247,-0.000000,7772.162391
2610.844885,689.485948,-1184.329507,8956.491898
2610.845214,0.000000,-1036.288319,9104.533087
2610.845543,-383.047749,-1776.494261,8882.471304
2610.845872,-612.876398,-1406.391290,9918.759623
2610.846202,-766.095498,-1628.453072,10955.047942
2610.846531,-612.876398,-1184.329507,10584.944971
2610.846860,76.609550,592.164754,9844.739029
2610.847189,383.047749,1850.514855,8586.388927
2610.847518,612.876398,3182.885551,8290.306550
2610.847847,919.314598,2368.659014,8882.471304
2610.848177,1225.752797,740.205942,8956.491898
2610.848506,1072.533697,74.020594,8438.347739
2610.848835,383.047749,-0.000000,7846.182985
2610.849164,153.219100,-592.164754,8956.491898
2610.849493,229.828649,-1258.350101,8956.491898
2610.849822,842.705048,-1702.473667,8808.450710
2610.850151,689.485948,-1850.514855,9400.615463
2610.850481,459.657299,-666.185348,9622.677246
2610.850810,766.095498,296.082377,9548.656652
2610.851139,919.314598,1776.494261,9104.533087
2610.851468,536.266849,2220.617826,9474.636058
2610.851797,842.705048,1184.329507,10066.800811
2610.852126,842.705048,592.164754,10510.924376
2610.852456,842.705048,1258.350101,9474.636058
2610.852785,766.095498,740.205942,8734.430116
2610.853114,842.705048,962.267725,8956.491898
2610.853443,1762.019645,-0.000000,9474.636058
2610.853772,1378.971896,-1258.350101,8660.409521
2610.854101,612.876398,-1110.308913,8808.450710
2610.854431,383.047749,-296.082377,8586.388927
2610.854760,306.438199,-222.061783,7698.141797
2610.855089,76.609550,-74.020594,8956.491898
2610.855418,995.924147,-962.267725,9104.533087
2610.855747,612.876398,-518.144159,9104.533087
2610.856076,612.876398,-518.144159,9770.718434
2610.856405,383.047749,592.164754,8882.471304
2610.856735,689.485948,296.082377,8586.388927
2610.857064,919.314598,-74.020594,9030.512492
2610.857393,766.095498,-814.226536,9104.533087
2610.857722,612.876398,-1406.391290,9326.594869
2610.858051,0.000000,-814.226536,8512.368333
2610.858380,0.000000,-1184.329507,8734.430116
2610.858710,-536.266849,-888.247130,8512.368333
2610.859039,-459.657299,-1332.370696,8734.430116
2610.859368,-306.438199,-2072.576638,8660.409521
2610.859697,-459.657299,-1258.350101,8808.450710
2610.860026,-459.657299,-1554.432478,8882.471304
2610.860355,76.609550,-1702.473667,8660.409521
2610.860685,612.876398,-1036.288319,9104.533087
2610.861014,612.876398,-1776.494261,9104.533087
2610.861343,612.876398,-1332.370696,9104.533087
2610.861672,153.219100,-444.123565,9178.553681
2610.862001,76.609550,-74.020594,8882.471304
2610.862330,-153.219100,888.247130,8512.368333
2610.862659,-229.828649,222.061783,9622.677246
2610.862989,-919.314598,-888.247130,9400.615463
2610.863318,-766.095498,-888.247130,9474.636058
2610.863647,-1225.752797,-1036.288319,9178.553681
2610.863976,-995.924147,-814.226536,8734.430116
2610.864305,-306.438199,-814.226536,8660.409521
2610.864634,153.219100,-1850.514855,9030.512492
2610.864964,689.485948,-1406.391290,9104.533087
2610.865293,1149.143247,-888.247130,8586.388927
2610.865622,1149.143247,222.061783,8068.244768
2610.865951,1072.533697,1628.453072,7846.182985
2610.866280,1455.581446,2220.617826,8364.327145
2610.866609,1302.362347,1110.308913,9400.615463
2610.866939,1302.362347,888.247130,9696.697840
2610.867268,1378.971896,592.164754,9030.512492
2610.867597,306.438199,740.205942,8882.471304
2610.867926,459.657299,814.226536,9326.594869
2610.868255,383.047749,-0.000000,9696.697840
2610.868584,459.657299,-1258.350101,10066.800811
2610.868913,459.657299,-1406.391290,9622.677246
2610.869243,383.047749,-296.082377,9104.533087
2610.869572,459.657299,444.123565,8586.388927
2610.869901,689.485948,666.185348,9030.512492
2610.870230,689.485948,-0.000000,9104.533087
2610.870559,612.876398,-0.000000,9400.615463
2610.870888,842.705048,444.123565,9252.574275
2610.871218,766.095498,1110.308913,8956.491898
2610.871547,1149.143247,740.205942,9252.574275
2610.871876,1685.410096,222.061783,9104.533087
2610.872205,1378.971896,-592.164754,9474.636058
2610.872534,1378.971896,-1036.288319,9770.718434
2610.872863,842.705048,-148.041188,9326.594869
2610.873193,306.438199,962.267725,8438.347739
2610.873522,0.000000,1110.308913,8364.327145
2610.873851,0.000000,222.061783,9178.553681
2610.874180,-153.219100,-370.102971,9178.553681
2610.874509,0.000000,-296.082377,9474.636058
2610.874838,-766.095498,-222.061783,9030.512492
2610.875167,-689.485948,-814.226536,8438.347739
2610.875497,-306.438199,-444.123565,9030.512492
2610.875826,0.000000,-1036.288319,9326.594869
2610.876155,306.438199,-1184.329507,9474.636058
2610.876484,612.876398,-370.102971,9030.512492
2610.876813,76.609550,888.247130,8290.306550
2610.877142,536.266849,1702.473667,8068.244768
2610.877472,1149.143247,1850.514855,8586.388927
2610.877801,229.828649,370.102971,9326.594869
2610.878130,0.000000,370.102971,9400.615463
2610.878459,0.000000,-370.102971,8956.491898
2610.878788,-459.657299,-444.123565,8808.450710
2610.879117,-153.219100,-1480.411884,8882.471304
2610.879447,0.000000,-1702.473667,9326.594869
2610.879776,0.000000,-1998.556043,9030.512492
2610.880105,153.219100,-1628.453072,9326.594869
2610.880434,76.609550,-0.000000,8364.327145
2610.880763,0.000000,740.205942,8068.244768
2610.881092,153.219100,888.247130,8808.450710
2610.881421,229.828649,370.102971,8808.450710
2610.881751,0.000000,-296.082377,10066.800811
2610.882080,306.438199,-444.123565,9326.594869
2610.882409,0.000000,-296.082377,9400.615463
2610.882738,0.000000,-74.020594,9400.615463
2610.883067,306.438199,-1036.288319,9474.636058
2610.883396,383.047749,-1332.370696,9474.636058
2610.883726,459.657299,-1406.391290,9400.615463
2610.884055,383.047749,-518.144159,9030.512492
2610.884384,-306.438199,740.205942,8586.388927
2610.884713,0.000000,888.247130,8660.409521
2610.885042,306.438199,-222.061783,9400.615463
2610.885371,306.438199,-666.185348,9548.656652
2610.885700,459.657299,-888.247130,9474.636058
2610.886030,536.266849,-444.123565,9622.677246
2610.886359,612.876398,-518.144159,9474.636058
2610.886688,2221.676944,-518.144159,8956.491898
2610.887017,1532.190996,-592.164754,9622.677246
2610.887346,1608.800546,-592.164754,9178.553681
2610.887675,1455.581446,-0.000000,8512.368333
2610.888005,1072.533697,814.226536,8142.265362
2610.888334,1072.533697,814.226536,8438.347739
2610.888663,306.438199,-222.061783,9104.533087
2610.888992,-306.438199,-1110.308913,9844.739029
2610.889321,76.609550,-2072.576638,9770.718434
2610.889650,-459.657299,-1036.288319,8808.450710
2610.889980,-536.266849,-1036.288319,8956.491898
2610.890309,0.000000,-1110.308913,9104.533087
2610.890638,383.047749,-1184.329507,8438.347739
2610.890967,1378.971896,-1110.308913,8882.471304
2610.891296,1072.533697,-222.061783,8586.388927
2610.891625,612.876398,1184.329507,7920.203579
2610.891954,842.705048,1258.350101,8290.306550
2610.892284,842.705048,1110.308913,8512.368333
2610.892613,383.047749,-666.185348,9548.656652
2610.892942,689.485948,-1110.308913,9918.759623
2610.893271,153.219100,-962.267725,9474.636058
2610.893600,0.000000,-0.000000,9326.594869
2610.893929,229.828649,-444.123565,7994.224174
2610.894259,153.219100,-0.000000,9104.533087
2610.894588,689.485948,-888.247130,9178.553681
2610.894917,536.266849,-222.061783,8808.450710
2610.895246,383.047749,814.226536,9030.512492
2610.895575,306.438199,1554.432478,8068.244768
2610.895904,0.000000,962.267725,8586.388927
2610.896234,0.000000,-74.020594,9622.677246
2610.896563,0.000000,-74.020594,9918.759623
2610.896892,-306.438199,370.102971,9474.636058
2610.897221,-383.047749,814.226536,9104.533087
2610.897550,-383.047749,296.082377,9400.615463
2610.897879,-919.314598,222.061783,9770.718434
2610.898208,0.000000,-888.247130,9696.697840
2610.898538,-383.047749,-962.267725,9474.636058
2610.898867,-306.438199,296.082377,9178.553681
2610.899196,-229.828649,740.205942,8660.409521
2610.899525,-383.047749,592.164754,9104.533087
2610.899854,-689.485948,-0.000000,9918.759623
2610.900183,153.219100,-740.205942,9992.780217
2610.900513,0.000000,148.041188,9474.636058
2610.900842,229.828649,1332.370696,8882.471304
2610.901171,536.266849,666.185348,9030.512492
2610.901500,995.924147,-0.000000,8956.491898
2610.901829,1455.581446,-518.144159,9326.594869
2610.902158,1225.752797,-1258.350101,9326.594869
2610.902488,766.095498,-148.041188,9030.512492
2610.902817,1149.143247,888.247130,8660.409521
2610.903146,229.828649,1184.329507,8290.306550
2610.903475,229.828649,1036.288319,9252.574275
2610.903804,76.609550,-518.144159,9696.697840
2610.904133,0.000000,-666.185348,9844.739029
2610.904462,-229.828649,-518.144159,9770.718434
2610.904792,-459.657299,-1406.391290,8956.491898
2610.905121,-229.828649,-888.247130,9326.594869
2610.905450,842.705048,-1406.391290,9696.697840
2610.905779,1149.143247,-1554.432478,9030.512492
2610.906108,1072.533697,-296.082377,8808.450710
2610.906437,1225.752797,666.185348,7772.162391
2610.906767,1991.848295,1776.494261,7994.224174
2610.907096,1608.800546,1776.494261,8438.347739
2610.907425,1915.238745,296.082377,8882.471304
2610.907754,995.924147,222.061783,9474.636058
2610.908083,766.095498,-222.061783,8882.471304
2610.908412,612.876398,-666.185348,9104.533087
2610.908742,612.876398,-666.185348,9030.512492
2610.909071,459.657299,-1406.391290,9400.615463
2610.909400,536.266849,-1406.391290,8808.450710
2610.909729,383.047749,-1258.350101,9030.512492
2610.910058,153.219100,-74.020594,8068.244768
2610.910387,0.000000,740.205942,7920.203579
2610.910716,0.000000,666.185348,8512.368333
2610.911046,306.438199,-296.082377,9252.574275
2610.911375,306.438199,-1110.308913,8882.471304
2610.911704,229.828649,-1184.329507,9474.636058
2610.912033,536.266849,-888.247130,9252.574275
2610.912362,229.828649,-592.164754,8956.491898
2610.912691,612.876398,-222.061783,8512.368333
2610.913021,612.876398,-666.185348,8956.491898
2610.913350,383.047749,-962.267725,9474.636058
2610.913679,-459.657299,-0.000000,8586.388927
2610.914008,-383.047749,-0.000000,8586.388927
2610.914337,-612.876398,518.144159,9400.615463
2610.914666,-766.095498,-222.061783,9326.594869
2610.914996,-995.924147,-1110.308913,10066.800811
2610.915325,-766.095498,-888.247130,9918.759623
2610.915654,-612.876398,-740.205942,9622.677246
2610.915983,0.000000,-1332.370696,9474.636058
2610.916312,76.609550,-962.267725,9696.697840
2610.916641,842.705048,-1110.308913,9474.636058
2610.916970,536.266849,-296.082377,8882.471304
2610.917300,995.924147,222.061783,8734.430116
2610.917629,1149.143247,1406.391290,8068.244768
2610.917958,1225.752797,1184.329507,8512.368333
2610.918287,842.705048,666.185348,9252.574275
2610.918616,459.657299,-1110.308913,9918.759623
2610.918945,383.047749,-370.102971,9326.594869
2610.919275,-612.876398,-370.102971,9178.553681
2610.919604,-842.705048,-0.000000,8956.491898
2610.919933,-306.438199,-740.205942,9400.615463
2610.920262,0.000000,-888.247130,9104.533087
2610.920591,306.438199,-1184.329507,8586.388927
2610.920920,0.000000,-814.226536,8734.430116
2610.921249,76.609550,-148.041188,8364.327145
2610.921579,536.266849,666.185348,8512.368333
2610.921908,459.657299,-0.000000,8956.491898
2610.922237,229.828649,-518.144159,9326.594869
2610.922566,919.314598,-0.000000,9030.512492
2610.922895,689.485948,444.123565,8438.347739
2610.923224,1072.533697,962.267725,8364.327145
2610.923554,1455.581446,148.041188,8734.430116
2610.923883,1532.190996,-0.000000,8808.450710
2610.924212,1378.971896,-592.164754,9252.574275
2610.924541,1608.800546,-962.267725,8808.450710
2610.924870,919.314598,888.247130,8290.306550
2610.925199,689.485948,1258.350101,8512.368333
2610.925529,536.266849,592.164754,8882.471304
2610.925858,0.000000,370.102971,9696.697840
2610.926187,383.047749,-74.020594,9474.636058
2610.926516,153.219100,592.164754,9400.615463
2610.926845,0.000000,-0.000000,9474.636058
2610.927174,459.657299,-222.061783,8808.450710
2610.927503,383.047749,-888.247130,9474.636058
2610.927833,995.924147,-1258.350101,9548.656652
2610.928162,689.485948,-1036.288319,9178.553681
2610.928491,612.876398,-0.000000,8956.491898
2610.928820,536.266849,1332.370696,8364.327145
2610.929149,766.095498,1110.308913,8660.409521
2610.929478,0.000000,370.102971,9548.656652
2610.929808,0.000000,-74.020594,10066.800811
2610.930137,0.000000,-666.185348,9622.677246
2610.930466,-229.828649,-370.102971,9400.615463
2610.930795,-306.438199,-814.226536,9548.656652
2610.931124,229.828649,-1110.308913,9400.615463
2610.931453,383.047749,-1406.391290,9252.574275
2610.931783,536.266849,-1036.288319,9326.594869
2610.932112,766.095498,-148.041188,8512.368333
2610.932441,612.876398,740.205942,7772.162391
2610.932770,689.485948,1110.308913,8068.244768
2610.933099,0.000000,888.247130,8808.450710
2610.933428,536.266849,-666.185348,10066.800811
2610.933757,76.609550,-666.185348,9252.574275
2610.934087,-536.266849,-592.164754,9326.594869
2610.934416,-1072.533697,-888.247130,8808.450710
2610.934745,-612.876398,-1406.391290,9400.615463
2610.935074,-689.485948,-888.247130,9178.553681
2610.935403,-536.266849,-1702.473667,8956.491898
2610.935732,-459.657299,-592.164754,9178.553681
2610.936062,-612.876398,-296.082377,8438.347739
2610.936391,-306.438199,222.061783,8364.327145
2610.936720,0.000000,518.144159,8660.409521
2610.937049,0.000000,-592.164754,8956.491898
2610.937378,306.438199,-1110.308913,9178.553681
2610.937707,383.047749,-814.226536,9252.574275
2610.938037,153.219100,-444.123565,8586.388927
2610.938366,1378.971896,-0.000000,8586.388927
2610.938695,1149.143247,296.082377,8438.347739
2610.939024,1532.190996,-74.020594,8882.471304
2610.939353,1378.971896,-222.061783,8956.491898
2610.939682,1225.752797,296.082377,8364.327145
2610.940011,1378.971896,888.247130,8438.347739
2610.940341,1225.752797,370.102971,9326.594869
2610.940670,383.047749,-444.123565,9696.697840
2610.940999,383.047749,-740.205942,9474.636058
2610.941328,153.219100,-444.123565,9548.656652
2610.941657,0.000000,-0.000000,9178.553681
2610.941986,383.047749,-0.000000,8808.450710
2610.942316,536.266849,296.082377,9474.636058
2610.942645,1225.752797,-592.164754,9770.718434
2610.942974,1072.533697,-1480.411884,9400.615463
2610.943303,459.657299,-518.144159,9030.512492
2610.943632,536.266849,-0.000000,9178.553681
2610.943961,536.266849,740.205942,9030.512492
2610.944290,-153.219100,-0.000000,9252.574275
2610.944620,536.266849,-592.164754,9918.759623
2610.944949,-153.219100,-0.000000,9548.656652
2610.945278,459.657299,-370.102971,8882.471304
2610.945607,0.000000,-0.000000,8882.471304
2610.945936,689.485948,-888.247130,8882.471304
2610.946265,1225.752797,-1258.350101,9104.533087
2610.946594,1378.971896,-1332.370696,8882.471304
2610.946923,1532.190996,-814.226536,8882.471304
2610.947253,842.705048,-0.000000,7328.038826
2610.947582,1302.362347,1628.453072,7846.182985
2610.947911,995.924147,962.267725,8660.409521
2610.948240,612.876398,222.061783,9326.594869
2610.948569,459.657299,-0.000000,9326.594869
2610.948898,229.828649,444.123565,8808.450710
2610.949227,-689.485948,-0.000000,8956.491898
2610.949556,0.000000,-888.247130,9770.718434
2610.949885,0.000000,-1850.514855,9696.697840
2610.950215,-306.438199,-2072.576638,9770.718434
2610.950544,-459.657299,-1184.329507,9474.636058
2610.950873,-383.047749,296.082377,8512.368333
2610.951202,-383.047749,888.247130,8216.285956
2610.951531,-459.657299,1332.370696,8882.471304
2610.951860,0.000000,148.041188,9252.574275
2610.952189,153.219100,-0.000000,9252.574275
2610.952518,153.219100,444.123565,9104.533087
2610.952848,0.000000,-0.000000,8808.450710
2610.953177,306.438199,-296.082377,9326.594869
2610.953506,536.266849,-740.205942,9474.636058
2610.953835,689.485948,-888.247130,9548.656652
2610.954164,842.705048,-1036.288319,9178.553681
2610.954493,536.266849,814.226536,7994.224174
2610.954822,536.266849,1184.329507,8512.368333
2610.955151,306.438199,1554.432478,8364.327145
2610.955481,383.047749,740.205942,9104.533087
2610.955810,229.828649,-296.082377,9548.656652
2610.956139,76.609550,296.082377,9030.512492
2610.956468,0.000000,-222.061783,9326.594869
2610.956797,0.000000,-1406.391290,8882.471304
2610.957126,76.609550,-814.226536,9474.636058
2610.957455,76.609550,-1924.535449,9474.636058
2610.957784,612.876398,-1258.350101,9178.553681
2610.958113,153.219100,-74.020594,8808.450710
2610.958443,459.657299,740.205942,8216.285956
2610.958772,383.047749,1554.432478,8808.450710
2610.959101,689.485948,296.082377,9030.512492
2610.959430,612.876398,-296.082377,9770.718434
2610.959759,689.485948,-0.000000,9696.697840
2610.960088,306.438199,-222.061783,9326.594869
2610.960417,689.485948,-0.000000,8882.471304
2610.960746,459.657299,-222.061783,9622.677246
2610.961076,1532.190996,-592.164754,9844.739029
2610.961405,1915.238745,-888.247130,9548.656652
2610.961734,995.924147,-0.000000,9326.594869
2610.962063,1225.752797,666.185348,8438.347739
2610.962392,919.314598,1036.288319,8808.450710
2610.962721,459.657299,296.082377,9474.636058
2610.963050,612.876398,-592.164754,10288.862594
2610.963379,229.828649,592.164754,9844.739029
2610.963708,0.000000,-0.000000,9548.656652
2610.964038,229.828649,-0.000000,8956.491898
2610.964367,766.095498,-0.000000,9400.615463
2610.964696,995.924147,-518.144159,9178.553681
2610.965025,842.705048,-1480.411884,9326.594869
2610.965354,0.000000,-148.041188,8734.430116
2610.965683,995.924147,888.247130,8438.347739
2610.966012,0.000000,740.205942,8290.306550
2610.966341,-306.438199,814.226536,9104.533087
2610.966671,0.000000,-814.226536,9474.636058
2610.967000,-766.095498,-888.247130,9474.636058
2610.967329,-766.095498,-888.247130,9326.594869
2610.967658,-536.266849,-370.102971,9178.553681
2610.967987,-229.828649,-740.205942,9252.574275
2610.968316,766.095498,-666.185348,9030.512492
2610.968645,1149.143247,-1184.329507,8142.265362
2610.968974,1455.581446,-814.226536,9252.574275
2610.969303,1149.143247,-0.000000,8364.327145
2610.969633,1149.143247,592.164754,7920.203579
2610.969962,995.924147,962.267725,8290.306550
2610.970291,536.266849,-0.000000,9104.533087
2610.970620,229.828649,-666.185348,9548.656652
2610.970949,0.000000,-1036.288319,9474.636058
2610.971278,-689.485948,-592.164754,9474.636058
2610.971607,0.000000,-740.205942,9474.636058
2610.971936,0.000000,-1332.370696,9252.574275
2610.972266,153.219100,-1924.535449,9474.636058
2610.972595,0.000000,-1628.453072,8956.491898
2610.972924,-306.438199,-740.205942,8956.491898
2610.973253,0.000000,-0.000000,9030.512492
2610.973582,0.000000,1480.411884,8586.388927
2610.973911,0.000000,1110.308913,9252.574275
2610.974240,0.000000,518.144159,9474.636058
2610.974569,76.609550,-74.020594,9474.636058
2610.974899,0.000000,-0.000000,9474.636058
2610.975228,153.219100,-0.000000,9252.574275
2610.975557,612.876398,-222.061783,9252.574275
2610.975886,229.828649,-666.185348,9474.636058
2610.976215,1072.533697,-1554.432478,9622.677246
2610.976544,1149.143247,-148.041188,9326.594869
2610.976873,919.314598,962.267725,7994.224174
2610.977202,1072.533697,1628.453072,8290.306550
2610.977531,1072.533697,1184.329507,8956.491898
2610.977861,1072.533697,370.102971,9400.615463
2610.978190,766.095498,-0.000000,9326.594869
2610.978519,842.705048,888.247130,9104.533087
2610.978848,536.266849,518.144159,8956.491898
2610.979177,689.485948,148.041188,9178.553681
2610.979506,612.876398,-444.123565,9696.697840
2610.979835,919.314598,-1258.350101,9844.739029
2610.980164,153.219100,-888.247130,9104.533087
2610.980494,229.828649,296.082377,8956.491898
2610.980823,0.000000,1110.308913,8734.430116
2610.981152,-383.047749,1628.453072,9178.553681
2610.981481,0.000000,-0.000000,9622.677246
2610.981810,0.000000,-592.164754,9918.759623
2610.982139,0.000000,-592.164754,9400.615463
2610.982468,229.828649,-370.102971,9104.533087
2610.982797,919.314598,-444.123565,9326.594869
2610.983126,612.876398,-962.267725,9696.697840
2610.983456,1302.362347,-1480.411884,9326.594869
2610.983785,1225.752797,-592.164754,8734.430116
2610.984114,995.924147,222.061783,8142.265362
2610.984443,383.047749,1332.370696,8068.244768
2610.984772,536.266849,814.226536,8734.430116
2610.985101,766.095498,-0.000000,9918.759623
2610.985430,383.047749,-1036.288319,9548.656652
2610.985759,-229.828649,-518.144159,9400.615463
2610.986089,-229.828649,-592.164754,8956.491898
2610.986418,0.000000,-222.061783,8882.471304
2610.986747,229.828649,-666.185348,9400.615463
2610.987076,612.876398,-1332.370696,9252.574275
2610.987405,153.219100,-1110.308913,8956.491898
2610.987734,0.000000,-222.061783,8438.347739
2610.988063,0.000000,444.123565,7920.203579
2610.988392,-383.047749,740.205942,8142.265362
2610.988722,-536.266849,-74.020594,8808.450710
2610.989051,0.000000,-740.205942,9474.636058
2610.989380,-459.657299,-666.185348,9474.636058
2610.989709,-612.876398,-666.185348,9178.553681
2610.990038,-383.047749,-222.061783,8882.471304
2610.990367,0.000000,-0.000000,9104.533087
2610.990696,306.438199,-740.205942,8956.491898
2610.991025,612.876398,-888.247130,8808.450710
2610.991354,919.314598,222.061783,8882.471304
2610.991684,689.485948,-0.000000,8438.347739
2610.992013,612.876398,592.164754,8808.450710
2610.992342,383.047749,296.082377,8956.491898
2610.992671,229.828649,-518.144159,9474.636058
2610.993000,383.047749,-296.082377,9474.636058
2610.993329,0.000000,222.061783,9178.553681
2610.993658,153.219100,-148.041188,9474.636058
2610.993987,919.314598,-444.123565,9326.594869
2610.994317,842.705048,-962.267725,9622.677246
2610.994646,1072.533697,-962.267725,9326.594869
2610.994975,689.485948,-740.205942,9104.533087
2610.995304,306.438199,592.164754,8956.491898
2610.995633,153.219100,814.226536,8808.450710
2610.995962,0.000000,962.267725,9474.636058
2610.996291,-229.828649,-592.164754,9696.697840
2610.996620,-229.828649,-888.247130,9918.759623
2610.996949,0.000000,-148.041188,9918.759623
2610.997279,-459.657299,-148.041188,9474.636058
2610.997608,229.828649,-740.205942,9474.636058
2610.997937,1149.143247,-444.123565,9474.636058
2610.998266,1302.362347,-1184.329507,9030.512492
2610.998595,1608.800546,-1110.308913,8882.471304
